time,seconds_elapsed,z,y,x
1761914532481433600,0.12343359375,0.002489487873390317,-0.06497012823820114,0.3341432511806488
1761914532491488800,0.13348876953125,0.00906190276145935,-0.027805181220173836,0.32382696866989136
1761914532501544700,0.143544677734375,0.007410914171487093,0.04425700008869171,0.30647099018096924
1761914532511600600,0.1536005859375,0.008265522308647633,0.13650090992450714,0.27045920491218567
1761914532521655800,0.16365576171875,0.009671096689999104,0.21010276675224304,0.1933755725622177
1761914532531711700,0.173711669921875,0.013432811945676804,0.2863043248653412,0.06642986834049225
1761914532541768000,0.183767822265625,0.013605823740363121,0.37644055485725403,-0.08242268860340118
1761914532551822600,0.193822509765625,0.008835569024085999,0.47335565090179443,-0.22228151559829712
1761914532561878800,0.203878662109375,0.004838005639612675,0.5256484150886536,-0.3269607126712799
1761914532571934700,0.213934814453125,0.008438599295914173,0.54460608959198,-0.38928481936454773
1761914532581990000,0.223989990234375,0.0039485301822423935,0.5167425870895386,-0.40599536895751953
1761914532592045800,0.2340458984375,0.00003821076825261116,0.44356635212898254,-0.37425607442855835
1761914532602101800,0.244101806640625,0.007657417096197605,0.3334568738937378,-0.30175405740737915
1761914532612157700,0.25415771484375,0.028281735256314278,0.20429597795009613,-0.19108988344669342
1761914532622212600,0.264212646484375,0.04673168808221817,0.08117800205945969,-0.06619793176651001
1761914532632268500,0.2742685546875,0.06033298373222351,-0.024684514850378036,0.07447343319654465
1761914532642324700,0.28432470703125,0.061438024044036865,-0.10025564581155777,0.23084409534931183
1761914532652379600,0.294379638671875,0.06914947181940079,-0.14497916400432587,0.38345441222190857
1761914532662435800,0.304435791015625,0.0804547667503357,-0.15514399111270905,0.5291666388511658
1761914532672491800,0.31449169921875,0.10782194137573242,-0.17771880328655243,0.6300306916236877
1761914532682547000,0.324546875,0.11948811262845993,-0.23566997051239014,0.6936051845550537
1761914532692602600,0.3346025390625,0.13247768580913544,-0.2631244957447052,0.6989304423332214
1761914532702658600,0.344658447265625,0.146896094083786,-0.22957079112529755,0.6551693677902222
1761914532712713700,0.354713623046875,0.14455650746822357,-0.1597466915845871,0.5540441274642944
1761914532722769700,0.364769775390625,0.13867704570293427,-0.1020125299692154,0.3986388146877289
1761914532732825900,0.374825927734375,0.14430297911167145,-0.06818399578332901,0.205035001039505
1761914532742880800,0.384880859375,0.15317417681217194,-0.08449749648571014,-0.03909143805503845
1761914532752937000,0.39493701171875,0.15275020897388458,-0.14479093253612518,-0.3191734254360199
1761914532762992600,0.40499267578125,0.14418162405490875,-0.21289412677288055,-0.581520676612854
1761914532773048600,0.415048583984375,0.1246691644191742,-0.2559981644153595,-0.7979848384857178
1761914532783103700,0.425103759765625,0.09757878631353378,-0.25302669405937195,-0.9435602426528931
1761914532793159700,0.43515966796875,0.06564003229141235,-0.21773689985275269,-1.0239791870117188
1761914532803215600,0.445215576171875,0.029040701687335968,-0.1795952171087265,-1.038417100906372
1761914532813270800,0.455270751953125,-0.00730931619182229,-0.14662235975265503,-0.9861618280410767
1761914532823326700,0.46532666015625,-0.049538593739271164,-0.09563641995191574,-0.8607922196388245
1761914532833383000,0.4753828125,-0.0934663712978363,-0.04820951074361801,-0.6753746867179871
1761914532843437600,0.4854375,-0.14506955444812775,-0.03829935938119888,-0.4665280878543854
1761914532853493800,0.49549365234375,-0.18721513450145721,-0.07612157613039017,-0.27882450819015503
1761914532863549700,0.5055498046875,-0.23528660833835602,-0.15166932344436646,-0.13201363384723663
1761914532873604900,0.51560498046875,-0.28337132930755615,-0.2298291176557541,-0.024740174412727356
1761914532883660800,0.525660888671875,-0.3124479651451111,-0.2984960377216339,0.03340701758861542
1761914532893716700,0.535716796875,-0.330011248588562,-0.3216719329357147,0.05291493982076645
1761914532903771600,0.545771728515625,-0.34646496176719666,-0.2922610342502594,0.04720967262983322
1761914532913827600,0.55582763671875,-0.3571016192436218,-0.24185167253017426,0.03108450025320053
1761914532923883800,0.5658837890625,-0.36613744497299194,-0.19802738726139069,0.02018672414124012
1761914532933934600,0.5759345703125,-0.3702738583087921,-0.16462814807891846,0.013471562415361404
1761914532943990800,0.58599072265625,-0.3711017072200775,-0.15921247005462646,0.013222655281424522
1761914532954046700,0.596046630859375,-0.3646211624145508,-0.19354966282844543,0.02861838974058628
1761914532964102700,0.6061025390625,-0.3476729691028595,-0.21737858653068542,0.05424383282661438
1761914532974157800,0.61615771484375,-0.3293299078941345,-0.2261931151151657,0.09553667902946472
1761914532984213800,0.6262138671875,-0.3055180609226227,-0.22008642554283142,0.13332490622997284
1761914532994270000,0.63627001953125,-0.28431397676467896,-0.19644580781459808,0.15179605782032013
1761914533004324600,0.64632470703125,-0.2613435387611389,-0.14292699098587036,0.15209995210170746
1761914533014380800,0.656380859375,-0.23498812317848206,-0.0606323778629303,0.13227297365665436
1761914533024436700,0.666436767578125,-0.20348359644412994,0.04733884334564209,0.10239553451538086
1761914533034492000,0.676491943359375,-0.17706556618213654,0.14334766566753387,0.058171346783638
1761914533044547800,0.6865478515625,-0.15090948343276978,0.21317598223686218,0.012530436739325523
1761914533054603800,0.696603759765625,-0.12448826432228088,0.22936587035655975,-0.022133532911539078
1761914533064658700,0.70665869140625,-0.09329649806022644,0.20171408355236053,-0.03996073827147484
1761914533074714600,0.716714599609375,-0.05942854657769203,0.15217556059360504,-0.0319875031709671
1761914533084770600,0.7267705078125,-0.023897018283605576,0.1372099220752716,0.009773933328688145
1761914533094825700,0.73682568359375,0.0053359693847596645,0.13802431523799896,0.0830279067158699
1761914533104881700,0.746881591796875,0.030640272423624992,0.13034845888614655,0.16565845906734467
1761914533114937900,0.756937744140625,0.0587984062731266,0.10583806782960892,0.23505164682865143
1761914533124992800,0.76699267578125,0.08414396643638611,0.060607798397541046,0.29230862855911255
1761914533135048700,0.777048583984375,0.11152631789445877,0.010466333478689194,0.33395087718963623
1761914533145104600,0.787104736328125,0.1265343427658081,-0.027536453679203987,0.3888360857963562
1761914533155160600,0.79716064453125,0.1319754421710968,-0.031493112444877625,0.45522868633270264
1761914533165215700,0.8072158203125,0.1450670212507248,-0.053183820098638535,0.48658812046051025
1761914533175271700,0.817271728515625,0.17110981047153473,-0.11952102929353714,0.45448237657546997
1761914533185327900,0.827327880859375,0.18654218316078186,-0.2115693986415863,0.361386775970459
1761914533195382800,0.8373828125,0.20589856803417206,-0.2883960008621216,0.21490490436553955
1761914533205439000,0.84743896484375,0.22360771894454956,-0.33672115206718445,0.02536032348871231
1761914533215494700,0.85749462890625,0.23567797243595123,-0.3337993919849396,-0.18705418705940247
1761914533225549800,0.8675498046875,0.2347477823495865,-0.2743997573852539,-0.38378432393074036
1761914533235605800,0.877605712890625,0.21089331805706024,-0.18710720539093018,-0.5386255979537964
1761914533245661700,0.88766162109375,0.16715896129608154,-0.10680872946977615,-0.6154122352600098
1761914533255716900,0.897716796875,0.107561394572258,-0.05820923671126366,-0.6235945820808411
1761914533265772800,0.907772705078125,0.046160463243722916,-0.02469751611351967,-0.5415730476379395
1761914533275828700,0.917828857421875,-0.011725470423698425,0.00896430667489767,-0.37088173627853394
1761914533285883600,0.927883544921875,-0.055080216377973557,0.036505572497844696,-0.1313258707523346
1761914533295939600,0.937939697265625,-0.08868185430765152,0.056840937584638596,0.15025122463703156
1761914533305995800,0.947995849609375,-0.11026792228221893,0.08244464546442032,0.4324833154678345
1761914533316050700,0.95805078125,-0.10591498762369156,0.083365298807621,0.6835107803344727
1761914533326107000,0.96810693359375,-0.08445728570222855,0.02864847332239151,0.8682554364204407
1761914533336162800,0.978162841796875,-0.07073508203029633,-0.040813956409692764,0.9534158706665039
1761914533346218800,0.98821875,-0.05741209536790848,-0.1181422770023346,0.9363278150558472
1761914533356273700,0.998273681640625,-0.04389548674225807,-0.1754622906446457,0.8231629133224487
1761914533366329600,1.00832958984375,-0.03099072352051735,-0.17632335424423218,0.6429873704910278
1761914533376385800,1.0183857421875,-0.010570934042334557,-0.12622396647930145,0.4229053556919098
1761914533386440700,1.028440673828125,0.013153252191841602,-0.051466841250658035,0.1789960116147995
1761914533396497000,1.038496826171875,0.0464952290058136,0.02323349379003048,-0.08561354130506516
1761914533406552800,1.048552734375,0.08799272030591965,0.09739208221435547,-0.3502483665943146
1761914533416607700,1.058607666015625,0.1318451315164566,0.15466469526290894,-0.5929752588272095
1761914533426663700,1.06866357421875,0.1768961101770401,0.19900289177894592,-0.7804304361343384
1761914533436719600,1.0787197265625,0.21765020489692688,0.2227010279893875,-0.8993129134178162
1761914533446774800,1.08877490234375,0.24412041902542114,0.22473092377185822,-0.9468108415603638
1761914533456830700,1.098830810546875,0.2531064748764038,0.21951459348201752,-0.9456486105918884
1761914533466886700,1.10888671875,0.25792309641838074,0.21019724011421204,-0.8961307406425476
1761914533476941800,1.11894189453125,0.2613505721092224,0.20897990465164185,-0.8044404983520508
1761914533486997800,1.128997802734375,0.27099165320396423,0.22003495693206787,-0.675116240978241
1761914533497053700,1.1390537109375,0.2923368811607361,0.23547117412090302,-0.5083349943161011
1761914533507109600,1.149109619140625,0.32057222723960876,0.22582678496837616,-0.2960359454154968
1761914533517164800,1.159164794921875,0.36656659841537476,0.16846176981925964,-0.08794531971216202
1761914533527220700,1.169220703125,0.39950379729270935,0.06079839542508125,0.07550082355737686
1761914533537276700,1.179276611328125,0.42118191719055176,-0.05597962066531181,0.1791001856327057
1761914533547331800,1.189331787109375,0.44825100898742676,-0.13333189487457275,0.21784670650959015
1761914533557387800,1.1993876953125,0.4887228012084961,-0.19395609200000763,0.19885782897472382
1761914533567444000,1.20944384765625,0.527409553527832,-0.26147180795669556,0.1386396735906601
1761914533577498600,1.21949853515625,0.5596798658370972,-0.3157656788825989,0.06133662909269333
1761914533587554800,1.229554931640625,0.5628315210342407,-0.3380967378616333,-0.006081013940274715
1761914533597610800,1.23961083984375,0.5518198609352112,-0.29798874258995056,-0.06078287586569786
1761914533607665700,1.249665771484375,0.5233597755432129,-0.21612907946109772,-0.1035284623503685
1761914533617721900,1.259721923828125,0.4745693802833557,-0.16006022691726685,-0.1438274085521698
1761914533627777800,1.26977783203125,0.41497477889060974,-0.1687551587820053,-0.17656175792217255
1761914533637832700,1.279832763671875,0.3454156816005707,-0.2459159940481186,-0.2136305719614029
1761914533647888600,1.289888671875,0.2898419201374054,-0.33651748299598694,-0.22006720304489136
1761914533657944600,1.299944580078125,0.2267894446849823,-0.3692815601825714,-0.16663967072963715
1761914533667999700,1.309999755859375,0.15436866879463196,-0.3553132712841034,-0.07982740551233292
1761914533678055700,1.3200556640625,0.07120399922132492,-0.3196306526660919,0.028547804802656174
1761914533688111900,1.33011181640625,0.009783532470464706,-0.2552160322666168,0.13281551003456116
1761914533698166800,1.340166748046875,-0.03598581999540329,-0.1730407178401947,0.21591439843177795
1761914533708222700,1.35022265625,-0.0697786808013916,-0.06436055153608322,0.269054114818573
1761914533718278700,1.360278564453125,-0.08088512718677521,0.09945821017026901,0.3049769699573517
1761914533728334600,1.37033447265625,-0.09445556998252869,0.27606630325317383,0.3305802345275879
1761914533738389800,1.3803896484375,-0.10331164300441742,0.3880714178085327,0.34462761878967285
1761914533748445700,1.39044580078125,-0.1095675677061081,0.41504544019699097,0.34316104650497437
1761914533758502000,1.400501953125,-0.08480629324913025,0.401672899723053,0.31856995820999146
1761914533768556800,1.410556884765625,0.15591353178024292,0.4997797906398773,0.24413718283176422
1761914533778612700,1.42061279296875,0.38486549258232117,0.6360265612602234,0.10207245498895645
1761914533788668700,1.430668701171875,0.4620187282562256,0.38196685910224915,0.021167729049921036
1761914533798723600,1.4407236328125,0.45986396074295044,0.24677841365337372,-0.017785530537366867
1761914533808779800,1.45077978515625,0.44014430046081543,0.22815711796283722,0.008972829207777977
1761914533818835700,1.460835693359375,0.400985449552536,0.23385335505008698,0.07433745265007019
1761914533828891000,1.470890869140625,0.3640701472759247,0.15690575540065765,0.15357713401317596
1761914533838946800,1.48094677734375,0.3432077169418335,-0.005683151539415121,0.23421898484230042
1761914533849002800,1.491002685546875,0.3004227578639984,-0.15480120480060577,0.316520631313324
1761914533859057700,1.5010576171875,0.21601788699626923,-0.20745615661144257,0.40448668599128723
1761914533869113600,1.511113525390625,0.12138921767473221,-0.20203882455825806,0.47979480028152466
1761914533879169800,1.521169677734375,0.026298923417925835,-0.1879112869501114,0.5176660418510437
1761914533889224700,1.531224609375,-0.08444227278232574,-0.26101821660995483,0.481362521648407
1761914533899281000,1.541281005859375,-0.22197644412517548,-0.40033507347106934,0.38438111543655396
1761914533909336800,1.5513369140625,-0.36754685640335083,-0.5566043257713318,0.2617679834365845
1761914533919391700,1.561391845703125,-0.510387122631073,-0.6756540536880493,0.12071739137172699
1761914533929447700,1.57144775390625,-0.6441855430603027,-0.7212763428688049,-0.02759111113846302
1761914533939503400,1.58150341796875,-0.8007714152336121,-0.7153720855712891,-0.19770744442939758
1761914533949558500,1.59155859375,-0.959024965763092,-0.6381689310073853,-0.3612583577632904
1761914533959614500,1.601614501953125,-1.0581635236740112,-0.3523637652397156,-0.45547088980674744
1761914533969670700,1.611670654296875,-1.0881255865097046,-0.2203424870967865,-0.44320669770240784
1761914533979726600,1.6217265625,-1.0208443403244019,0.10944393277168274,-0.3079617917537689
1761914533989781500,1.631781494140625,-0.9289048910140991,0.3677929937839508,-0.1312810182571411
1761914533999837400,1.64183740234375,-0.8465208411216736,0.436660498380661,0.0334317609667778
1761914534009893400,1.651893310546875,-0.8012022972106934,0.40327322483062744,0.16037039458751678
1761914534019948500,1.661948486328125,-0.7934338450431824,0.31764382123947144,0.2653343677520752
1761914534030004500,1.67200439453125,-0.8139134049415588,0.1946185678243637,0.3422822654247284
1761914534040060400,1.682060302734375,-0.8570409417152405,0.0704185739159584,0.3965630829334259
1761914534050115600,1.692115478515625,-0.9100896120071411,-0.04864123463630676,0.4244598150253296
1761914534060171500,1.702171630859375,-0.9742941856384277,-0.18827690184116364,0.41203033924102783
1761914534070227500,1.7122275390625,-1.0409754514694214,-0.38846251368522644,0.3527804911136627
1761914534080282400,1.722282470703125,-1.11415696144104,-0.6375633478164673,0.25081416964530945
1761914534090338600,1.732338623046875,-1.1926143169403076,-0.8631325960159302,0.146439328789711
1761914534100394500,1.74239453125,-1.2806671857833862,-1.0163637399673462,0.05159537494182587
1761914534110449700,1.75244970703125,-1.3684645891189575,-1.0598655939102173,-0.031620897352695465
1761914534120505600,1.762505615234375,-1.4436613321304321,-1.0032284259796143,-0.0965477004647255
1761914534130561500,1.7725615234375,-1.494060754776001,-0.858660876750946,-0.15800736844539642
1761914534140616400,1.782616455078125,-1.5215437412261963,-0.6573589444160461,-0.20840875804424286
1761914534150672400,1.79267236328125,-1.5358847379684448,-0.4376853406429291,-0.2608206272125244
1761914534160728600,1.802728515625,-1.5328831672668457,-0.24207645654678345,-0.31816592812538147
1761914534170784500,1.812784423828125,-1.5153601169586182,-0.08180363476276398,-0.3715788722038269
1761914534180839400,1.82283935546875,-1.4893139600753784,0.05730658769607544,-0.4097318649291992
1761914534190895600,1.8328955078125,-1.454569697380066,0.17817936837673187,-0.4331524074077606
1761914534200951600,1.84295166015625,-1.4254597425460815,0.2655302584171295,-0.44775983691215515
1761914534211006500,1.85300634765625,-1.4040974378585815,0.33463940024375916,-0.44974979758262634
1761914534221062400,1.8630625,-1.3900712728500366,0.3938228189945221,-0.44363918900489807
1761914534231118300,1.873118408203125,-1.378814935684204,0.42897599935531616,-0.4147659242153168
1761914534241173500,1.883173583984375,-1.3577455282211304,0.43556544184684753,-0.37365710735321045
1761914534251229400,1.8932294921875,-1.3222057819366455,0.43764325976371765,-0.3245602250099182
1761914534261285600,1.90328564453125,-1.2536139488220215,0.41993963718414307,-0.27268239855766296
1761914534271340300,1.91334033203125,-1.148946762084961,0.3903367221355438,-0.23038767278194427
1761914534281396500,1.923396484375,-1.0111333131790161,0.3862868547439575,-0.19343151152133942
1761914534291452400,1.933452392578125,-0.8601289391517639,0.4037846028804779,-0.15947572886943817
1761914534301507600,1.943507568359375,-0.7081367373466492,0.4219617247581482,-0.13649770617485046
1761914534311563500,1.9535634765625,-0.5638388395309448,0.4293171167373657,-0.11006410419940948
1761914534321619500,1.963619384765625,-0.42505988478660583,0.40699103474617004,-0.08548259735107422
1761914534331675600,1.973675537109375,-0.2974347174167633,0.3628683388233185,-0.06193235144019127
1761914534341730600,1.98373046875,-0.19625669717788696,0.3587566912174225,-0.027903810143470764
1761914534351786500,1.993786376953125,-0.11005409806966782,0.4187491238117218,0.019523009657859802
1761914534361842400,2.003842529296875,-0.027120070531964302,0.5044941306114197,0.0844319686293602
1761914534371897300,2.0138974609375,0.056948065757751465,0.5699280500411987,0.1614927351474762
1761914534381953500,2.02395361328125,0.15301840007305145,0.6074767112731934,0.2563188374042511
1761914534392009500,2.034009521484375,0.25817039608955383,0.6199848651885986,0.36304351687431335
1761914534402064600,2.044064697265625,0.37351322174072266,0.6134020686149597,0.4825994670391083
1761914534412120600,2.05412060546875,0.4879522919654846,0.579704225063324,0.6201344132423401
1761914534422176500,2.064176513671875,0.583777904510498,0.5105957388877869,0.7431639432907104
1761914534432231400,2.0742314453125,0.6343162059783936,0.39118173718452454,0.8321436047554016
1761914534442287400,2.084287353515625,0.6424944996833801,0.20019955933094025,0.858713686466217
1761914534452343600,2.094343505859375,0.5822613835334778,-0.04646435007452965,0.8029018640518188
1761914534462398500,2.1043984375,0.4585115313529968,-0.2855496406555176,0.6911228895187378
1761914534472454700,2.11445458984375,0.32034873962402344,-0.4202437996864319,0.567145586013794
1761914534482510600,2.124510498046875,0.23870821297168732,-0.38763418793678284,0.4642764627933502
1761914534492565500,2.1345654296875,0.22420476377010345,-0.28694993257522583,0.38010409474372864
1761914534502621400,2.144621337890625,0.23385180532932281,-0.21692503988742828,0.282647043466568
1761914534512677400,2.154677490234375,0.25055286288261414,-0.19724485278129578,0.19152119755744934
1761914534522733600,2.164733642578125,0.2709055244922638,-0.2718975245952606,0.11880013346672058
1761914534532788500,2.17478857421875,0.2555365264415741,-0.41218844056129456,0.06922522187232971
1761914534542844400,2.184844482421875,0.21830953657627106,-0.5391384363174438,0.0602509006857872
1761914534552900600,2.194900634765625,0.17006556689739227,-0.6175161004066467,0.08460429310798645
1761914534562955300,2.204955322265625,0.12739932537078857,-0.6902523636817932,0.11934629082679749
1761914534573011500,2.215011474609375,0.07963117212057114,-0.7361716628074646,0.15419602394104004
1761914534583067400,2.2250673828125,0.04408383369445801,-0.6826072335243225,0.19336473941802979
1761914534593122600,2.23512255859375,0.03743521496653557,-0.5072545409202576,0.24488484859466553
1761914534603178500,2.245178466796875,0.06475871056318283,-0.25019532442092896,0.29322654008865356
1761914534613234400,2.255234375,0.12978409230709076,-0.021206915378570557,0.31941190361976624
1761914534623289600,2.26528955078125,0.19657403230667114,0.10849355161190033,0.2965049743652344
1761914534633345500,2.275345458984375,0.2294301986694336,0.12193482369184494,0.24233019351959229
1761914534643401500,2.2854013671875,0.24699826538562775,0.06861007958650589,0.19826045632362366
1761914534653456400,2.295456298828125,0.2659660875797272,-0.023285456001758575,0.17591312527656555
1761914534663512600,2.3055126953125,0.27864566445350647,-0.16429585218429565,0.18214759230613708
1761914534673568500,2.315568603515625,0.2729431390762329,-0.3315829038619995,0.20681510865688324
1761914534683624400,2.32562451171875,0.2484212964773178,-0.5021117925643921,0.23301927745342255
1761914534693679600,2.3356796875,0.20559602975845337,-0.6601551175117493,0.26000112295150757
1761914534703735600,2.345735595703125,0.16670508682727814,-0.7361894249916077,0.2886170744895935
1761914534713791500,2.35579150390625,0.146382138133049,-0.6768725514411926,0.32992812991142273
1761914534723846400,2.365846435546875,0.14869429171085358,-0.4882696568965912,0.37099140882492065
1761914534733902300,2.37590234375,0.15529687702655792,-0.21294118463993073,0.380660742521286
1761914534743958500,2.38595849609375,0.1664525866508484,0.1023845449090004,0.34893691539764404
1761914534754013400,2.396013427734375,0.17920206487178802,0.4022279977798462,0.2662985026836395
1761914534764069600,2.406069580078125,0.20092573761940002,0.6354284882545471,0.14210359752178192
1761914534774125600,2.41612548828125,0.2313312143087387,0.7981585264205933,0.012582708150148392
1761914534784180500,2.426180419921875,0.28421786427497864,0.905697762966156,-0.10354975610971451
1761914534794236400,2.436236328125,0.3683221638202667,0.9361011385917664,-0.20158159732818604
1761914534804292400,2.446292236328125,0.4742909371852875,0.8928200006484985,-0.2841358780860901
1761914534814348500,2.4563486328125,0.5731402635574341,0.7899631261825562,-0.3627866208553314
1761914534824403500,2.466403564453125,0.6275007128715515,0.6798526048660278,-0.44053441286087036
1761914534834459600,2.476459716796875,0.6327124238014221,0.5917984247207642,-0.5158221125602722
1761914534844515600,2.486515625,0.5802196264266968,0.5255230069160461,-0.5800668597221375
1761914534854570500,2.496570556640625,0.46143412590026855,0.46188148856163025,-0.6277703046798706
1761914534864626400,2.50662646484375,0.3135458528995514,0.40217339992523193,-0.6454513072967529
1761914534874682400,2.516682373046875,0.15253260731697083,0.36841678619384766,-0.6252056956291199
1761914534884737500,2.526737548828125,0.012038879096508026,0.3680686950683594,-0.5792129039764404
1761914534894793500,2.53679345703125,-0.0947168618440628,0.40351536870002747,-0.5226820111274719
1761914534904849400,2.546849365234375,-0.17032067477703094,0.431720107793808,-0.4605030417442322
1761914534914904600,2.556904541015625,-0.19422614574432373,0.4424191415309906,-0.37745124101638794
1761914534924960300,2.566960205078125,-0.16426345705986023,0.4537152051925659,-0.2633552849292755
1761914534935020000,2.57702001953125,-0.09254349023103714,0.4449070394039154,-0.12486287206411362
1761914534945074700,2.58707470703125,0.008535725064575672,0.4104244112968445,0.016749121248722076
1761914534955131000,2.597130859375,0.11959950625896454,0.35349979996681213,0.13973818719387054
1761914534965186800,2.607186767578125,0.225495845079422,0.26246681809425354,0.23306439816951752
1761914534975242000,2.617241943359375,0.30438780784606934,0.1344679743051529,0.3053610324859619
1761914534985298000,2.6272978515625,0.34622687101364136,0.01710513047873974,0.3685823678970337
1761914534995353900,2.637353759765625,0.36231929063796997,-0.06729230284690857,0.4341847896575928
1761914535005410000,2.64741015625,0.36779847741127014,-0.13498294353485107,0.4988178014755249
1761914535015465000,2.65746484375,0.3521308898925781,-0.20822657644748688,0.5519276261329651
1761914535025521000,2.66752099609375,0.29708442091941833,-0.27563995122909546,0.5983605980873108
1761914535035576800,2.677576904296875,0.19928181171417236,-0.3162396550178528,0.6499139070510864
1761914535045632000,2.687632080078125,0.06409309804439545,-0.3524168133735657,0.7016527652740479
1761914535055688000,2.69768798828125,-0.09484631568193436,-0.41902223229408264,0.7455862164497375
1761914535065744000,2.707743896484375,-0.2696210741996765,-0.5187442302703857,0.7793236970901489
1761914535075799000,2.717799072265625,-0.44871941208839417,-0.6369811296463013,0.7922071814537048
1761914535085855000,2.72785498046875,-0.6114795804023743,-0.7688848376274109,0.7790958881378174
1761914535095911000,2.737910888671875,-0.7367873191833496,-0.8623460531234741,0.7563022971153259
1761914535105965800,2.7479658203125,-0.7819945216178894,-0.8779566884040833,0.7496502995491028
1761914535116021800,2.758021728515625,-0.7494361996650696,-0.8766762614250183,0.7387811541557312
1761914535126078000,2.768077880859375,-0.6830428242683411,-0.8966222405433655,0.7009773254394531
1761914535136132900,2.7781328125,-0.6136078834533691,-0.9129946827888489,0.6243849396705627
1761914535146189000,2.78818896484375,-0.5599579811096191,-0.8439844846725464,0.5349546670913696
1761914535156245000,2.798244873046875,-0.5156509280204773,-0.6505552530288696,0.44101011753082275
1761914535166301000,2.808301025390625,-0.4805546700954437,-0.40213507413864136,0.3150375485420227
1761914535176355800,2.81835595703125,-0.45414867997169495,-0.2576446831226349,0.11570251733064651
1761914535186411800,2.828411865234375,-0.4423242211341858,-0.3006336987018585,-0.15011638402938843
1761914535196468000,2.838468017578125,-0.43624037504196167,-0.5069717168807983,-0.47183558344841003
1761914535206523000,2.84852294921875,-0.4575965404510498,-0.7788287997245789,-0.8101590275764465
1761914535216579000,2.8585791015625,-0.5008151531219482,-1.0018653869628906,-1.121778130531311
1761914535226635000,2.868635009765625,-0.5586366057395935,-1.0944056510925293,-1.3624948263168335
1761914535236690000,2.87868994140625,-0.6110171675682068,-0.9933986067771912,-1.4957407712936401
1761914535246745900,2.888745849609375,-0.6062418818473816,-0.6868692636489868,-1.5075401067733765
1761914535256801800,2.8988017578125,-0.5125446319580078,-0.28994274139404297,-1.409082293510437
1761914535266857000,2.90885693359375,-0.33864420652389526,0.07932265847921371,-1.2176779508590698
1761914535276913000,2.918912841796875,-0.10711200535297394,0.363785058259964,-0.9822936654090881
1761914535286968800,2.92896875,0.12394224852323532,0.5407819747924805,-0.7269114255905151
1761914535297024000,2.93902392578125,0.31505846977233887,0.6321086287498474,-0.47444599866867065
1761914535307079700,2.94907958984375,0.4594132602214813,0.6498008370399475,-0.25268909335136414
1761914535317136000,2.959135986328125,0.5544636845588684,0.5434186458587646,-0.0945296362042427
1761914535327190800,2.969190673828125,0.5853930711746216,0.30987754464149475,-0.007226960267871618
1761914535337247000,2.9792470703125,0.5414038896560669,-0.011502070352435112,0.007990782149136066
1761914535347303000,2.989302978515625,0.4266006052494049,-0.3417348265647888,-0.01885494589805603
1761914535357358800,2.99935888671875,0.2679634094238281,-0.5885637998580933,-0.035946719348430634
1761914535367414000,3.0094140625,0.10209640115499496,-0.6791589856147766,-0.013996945694088936
1761914535377470000,3.019469970703125,-0.04000318422913551,-0.6466782093048096,0.04104281961917877
1761914535387526000,3.02952587890625,-0.1514066755771637,-0.551091194152832,0.10759201645851135
1761914535397580800,3.039580810546875,-0.23394392430782318,-0.43075206875801086,0.16576695442199707
1761914535407637000,3.049636962890625,-0.2855903208255768,-0.29595139622688293,0.19332587718963623
1761914535417693000,3.05969287109375,-0.3175170421600342,-0.1724342256784439,0.19276368618011475
1761914535427747800,3.069747802734375,-0.3378121852874756,-0.0874335765838623,0.16128087043762207
1761914535437804000,3.079803955078125,-0.35819944739341736,-0.03793762996792793,0.10235024243593216
1761914535447860000,3.08985986328125,-0.36818844079971313,-0.007682786788791418,0.03201615810394287
1761914535457915000,3.099914794921875,-0.3627186417579651,0.042307380586862564,-0.03582964465022087
1761914535467970800,3.109970703125,-0.3391949534416199,0.11981122940778732,-0.09356457740068436
1761914535478026800,3.12002685546875,-0.306104838848114,0.20910508930683136,-0.14079289138317108
1761914535488082000,3.13008203125,-0.283176064491272,0.2740127146244049,-0.19088108837604523
1761914535498137900,3.140137939453125,-0.27571940422058105,0.30160626769065857,-0.24019578099250793
1761914535508194000,3.150194091796875,-0.2922096848487854,0.28482329845428467,-0.2897111475467682
1761914535518250000,3.16025,-0.33817434310913086,0.2250087410211563,-0.33054599165916443
1761914535528305000,3.170304931640625,-0.41003575921058655,0.14997869729995728,-0.36460062861442566
1761914535538360800,3.18036083984375,-0.4932336211204529,0.08113014698028564,-0.38933539390563965
1761914535548416800,3.190416748046875,-0.5767809748649597,0.03952384740114212,-0.4078853726387024
1761914535558472000,3.200471923828125,-0.6351959109306335,0.04631299898028374,-0.4214355945587158
1761914535568528000,3.21052783203125,-0.6548620462417603,0.10477470606565475,-0.4318866431713104
1761914535578584000,3.220583984375,-0.6296148300170898,0.17106136679649353,-0.43691396713256836
1761914535588639000,3.230638916015625,-0.5421203970909119,0.25746574997901917,-0.43228885531425476
1761914535598695000,3.24069482421875,-0.40240079164505005,0.3946845829486847,-0.40421411395072937
1761914535608750800,3.250750732421875,-0.2217239886522293,0.5194177031517029,-0.36189302802085876
1761914535618805800,3.2608056640625,-0.03849553316831589,0.589167058467865,-0.31763288378715515
1761914535628862000,3.270862060546875,0.1290399432182312,0.6060855388641357,-0.27039557695388794
1761914535638918000,3.28091796875,0.2684268355369568,0.5965798497200012,-0.2146870493888855
1761914535648973000,3.29097314453125,0.3903719186782837,0.5628442764282227,-0.13653233647346497
1761914535659029000,3.301029052734375,0.49316486716270447,0.5084303617477417,-0.042290158569812775
1761914535669084700,3.311084716796875,0.5710338354110718,0.4298902750015259,0.06476838886737823
1761914535679140900,3.321140869140625,0.619646430015564,0.3070215880870819,0.1602221578359604
1761914535689195800,3.33119580078125,0.630705714225769,0.13117201626300812,0.23903894424438477
1761914535699252000,3.341251953125,0.6265577673912048,-0.05524154752492905,0.309141606092453
1761914535709308000,3.351307861328125,0.6057624816894531,-0.18283092975616455,0.37895238399505615
1761914535719363000,3.361363037109375,0.5799327492713928,-0.23904307186603546,0.4539608359336853
1761914535729419000,3.3714189453125,0.5347018837928772,-0.2960056960582733,0.5117181539535522
1761914535739475000,3.381474853515625,0.44413283467292786,-0.4155525267124176,0.5323293805122375
1761914535749529900,3.39152978515625,0.3166084289550781,-0.5168347358703613,0.5324404239654541
1761914535759585800,3.401585693359375,0.2012050300836563,-0.5392093062400818,0.5369532108306885
1761914535769642000,3.41164208984375,0.10906366258859634,-0.543755054473877,0.5437495708465576
1761914535779697000,3.42169677734375,0.021274689584970474,-0.5651322603225708,0.5394054055213928
1761914535789753000,3.431753173828125,-0.07718344032764435,-0.5571619272232056,0.5311200618743896
1761914535799809000,3.44180908203125,-0.18014851212501526,-0.49200502038002014,0.523763120174408
1761914535809865000,3.451864990234375,-0.25380489230155945,-0.3849286437034607,0.5171611309051514
1761914535819920000,3.461919921875,-0.2977767288684845,-0.2591956853866577,0.5125603079795837
1761914535829975800,3.471975830078125,-0.2991165816783905,-0.11702416092157364,0.50923752784729
1761914535840031700,3.48203173828125,-0.25043198466300964,0.04135870933532715,0.5075826644897461
1761914535850087000,3.4920869140625,-0.1709291636943817,0.1964164674282074,0.4909144639968872
1761914535860142800,3.502142822265625,-0.0765223503112793,0.26725417375564575,0.4401814639568329
1761914535870199000,3.512198974609375,-0.027439752593636513,0.25057587027549744,0.34519609808921814
1761914535880253700,3.522253662109375,-0.019955173134803772,0.15979938209056854,0.2096773236989975
1761914535890310000,3.532309814453125,-0.03739754855632782,0.05336721986532211,0.07871796935796738
1761914535900365800,3.54236572265625,-0.05217951908707619,-0.057691652327775955,-0.023047130554914474
1761914535910421000,3.5524208984375,-0.07527871429920197,-0.19007979333400726,-0.08726046979427338
1761914535920477000,3.562476806640625,-0.133222296833992,-0.3277503252029419,-0.12415570765733719
1761914535930532900,3.572532958984375,-0.22869102656841278,-0.4612785577774048,-0.14950233697891235
1761914535940589000,3.582589111328125,-0.3455893397331238,-0.5532886385917664,-0.17051024734973907
1761914535950645000,3.59264501953125,-0.4516201615333557,-0.6200059056282043,-0.1986984759569168
1761914535960701000,3.602700927734375,-0.5176599621772766,-0.667495608329773,-0.24160070717334747
1761914535970757000,3.612757080078125,-0.5425437688827515,-0.7027949690818787,-0.2988932728767395
1761914535980812000,3.62281201171875,-0.5215754508972168,-0.6827810406684875,-0.3530861437320709
1761914535990868000,3.632867919921875,-0.4511395990848541,-0.578741729259491,-0.39562857151031494
1761914536000924000,3.642923828125,-0.3179394006729126,-0.4099655747413635,-0.4115191400051117
1761914536010978800,3.652978759765625,-0.12307696044445038,-0.2014818638563156,-0.4042721390724182
1761914536021035000,3.663034912109375,0.11103210598230362,-0.016371633857488632,-0.3848865330219269
1761914536031091000,3.673091064453125,0.3490188419818878,0.10904780775308609,-0.3531435430049896
1761914536041146000,3.68314599609375,0.5510206818580627,0.16760802268981934,-0.3015999495983124
1761914536051202000,3.6932021484375,0.6516011357307434,0.18776708841323853,-0.23481106758117676
1761914536061258000,3.703258056640625,0.6551247835159302,0.1647811084985733,-0.16636937856674194
1761914536071313000,3.71331298828125,0.580058753490448,0.11680427193641663,-0.10607034713029861
1761914536081368800,3.723368896484375,0.44808894395828247,0.07650857418775558,-0.05265205353498459
1761914536091425000,3.733425048828125,0.28466302156448364,0.054358795285224915,-0.014269774779677391
1761914536101481000,3.74348095703125,0.12625978887081146,0.02647593431174755,0.013702592812478542
1761914536111536000,3.7535361328125,-0.0056923795491456985,-0.00821893010288477,0.023151755332946777
1761914536121592000,3.763592041015625,-0.10073956847190857,-0.053740862756967545,0.014651093631982803
1761914536131648000,3.77364794921875,-0.1566164195537567,-0.08428998291492462,-0.010118700563907623
1761914536141703000,3.783702880859375,-0.17840975522994995,-0.10164334625005722,-0.05281001329421997
1761914536151758800,3.7937587890625,-0.17411459982395172,-0.09848324209451675,-0.11532319337129593
1761914536161815000,3.80381494140625,-0.15382938086986542,-0.0660204365849495,-0.18339049816131592
1761914536171870000,3.813869873046875,-0.11616243422031403,-0.02172035723924637,-0.25009390711784363
1761914536181926000,3.82392578125,-0.06378130614757538,0.00732686510309577,-0.3036482632160187
1761914536191982000,3.833982177734375,0.012720656581223011,0.020926829427480698,-0.3302801549434662
1761914536202037000,3.844037109375,0.10023998469114304,0.03924925997853279,-0.30238211154937744
1761914536212093000,3.854093017578125,0.1864587515592575,0.07682966440916061,-0.23865002393722534
1761914536222148900,3.86414892578125,0.26667532324790955,0.14677651226520538,-0.1477261185646057
1761914536232204000,3.8742041015625,0.3236752450466156,0.2271461933851242,-0.04883842170238495
1761914536242260000,3.884260009765625,0.3495243489742279,0.27083849906921387,0.03920987993478775
1761914536252316000,3.89431591796875,0.3540096580982208,0.286856085062027,0.1351792812347412
1761914536262372000,3.9043720703125,0.32866084575653076,0.28574156761169434,0.24231873452663422
1761914536272427000,3.914427001953125,0.28748783469200134,0.2695367634296417,0.3538060784339905
1761914536282483200,3.924483154296875,0.22245697677135468,0.21429483592510223,0.44775205850601196
1761914536292539000,3.934538818359375,0.1312013566493988,0.10963607579469681,0.5096700191497803
1761914536302594000,3.944593994140625,0.02998455800116062,-0.05043289437890053,0.5469363927841187
1761914536312650000,3.95464990234375,-0.06569269299507141,-0.2424316257238388,0.5739957094192505
1761914536322706000,3.964705810546875,-0.14094707369804382,-0.439867228269577,0.6161523461341858
1761914536332761000,3.974760986328125,-0.1789972484111786,-0.585757315158844,0.6867077350616455
1761914536342817000,3.984817138671875,-0.17065675556659698,-0.6193885207176208,0.7866042256355286
1761914536352873000,3.994873046875,-0.11887159943580627,-0.5805726647377014,0.8877665400505066
1761914536362927900,4.004927978515625,-0.06100346893072128,-0.5670894384384155,0.9510520100593567
1761914536372982000,4.01498193359375,-0.016776086762547493,-0.5888705849647522,0.9643920660018921
1761914536383038000,4.025037841796875,0.006380528677254915,-0.5851331353187561,0.9417721629142761
1761914536393094100,4.03509423828125,0.03972490504384041,-0.5153548717498779,0.8788853287696838
1761914536403148800,4.045148681640625,0.08520031720399857,-0.44808104634284973,0.7760267853736877
1761914536413205000,4.055205078125,0.10753704607486725,-0.4670991897583008,0.6103147864341736
1761914536423261000,4.065260986328125,0.09517970681190491,-0.5798624753952026,0.4017198383808136
1761914536433316000,4.075316162109375,0.059055790305137634,-0.690498411655426,0.21137785911560059
1761914536443372000,4.0853720703125,0.023439643904566765,-0.742603063583374,0.09477243572473526
1761914536453428000,4.095427978515625,-0.007427191827446222,-0.710558295249939,0.07039066404104233
1761914536463483100,4.105483154296875,-0.02862059697508812,-0.5725795030593872,0.13071097433567047
1761914536473538800,4.115538818359375,-0.020178910344839096,-0.34176868200302124,0.23201921582221985
1761914536483595000,4.125594970703125,0.03762580826878548,-0.07288666069507599,0.33681318163871765
1761914536493650000,4.13564990234375,0.1396310031414032,0.14029937982559204,0.39953088760375977
1761914536503705900,4.145705810546875,0.2417525053024292,0.20895467698574066,0.37889018654823303
1761914536513762000,4.155761962890625,0.33050552010536194,0.16686874628067017,0.29147669672966003
1761914536523817000,4.16581689453125,0.43440765142440796,0.11157858371734619,0.18789316713809967
1761914536533873200,4.175873046875,0.5741434693336487,0.08661996573209763,0.107853464782238
1761914536543929000,4.18592919921875,0.6851806044578552,0.054406918585300446,0.051335886120796204
1761914536553984800,4.19598486328125,0.7368131875991821,-0.019899534061551094,0.0021204007789492607
1761914536564040000,4.2060400390625,0.7145606875419617,-0.09556069225072861,-0.04055136814713478
1761914536574096000,4.216095947265625,0.6558984518051147,-0.14304006099700928,-0.09414668381214142
1761914536584152000,4.226152099609375,0.590981662273407,-0.14332717657089233,-0.14217962324619293
1761914536594207000,4.23620703125,0.5272290110588074,-0.10635371506214142,-0.17937147617340088
1761914536604263200,4.24626318359375,0.46992072463035583,-0.04775407910346985,-0.20041140913963318
1761914536614319000,4.256319091796875,0.4080243408679962,0.02241435833275318,-0.21265342831611633
1761914536624374000,4.2663740234375,0.353908896446228,0.10449571162462234,-0.2271057814359665
1761914536634430000,4.276429931640625,0.31791654229164124,0.19537341594696045,-0.2342824637889862
1761914536644486000,4.28648583984375,0.3085319995880127,0.2687762677669525,-0.22424060106277466
1761914536654541000,4.296541015625,0.30570080876350403,0.2964113652706146,-0.1816910207271576
1761914536664597000,4.306596923828125,0.29377344250679016,0.2932139039039612,-0.1054069772362709
1761914536674653000,4.31665283203125,0.2718915641307831,0.2547067105770111,-0.009818664751946926
1761914536684709000,4.326709228515625,0.2561207711696625,0.22822211682796478,0.07682593911886215
1761914536694763800,4.336763671875,0.25491011142730713,0.21026362478733063,0.1469043642282486
1761914536704820000,4.346820068359375,0.24803946912288666,0.20717684924602509,0.20545394718647003
1761914536714876000,4.3568759765625,0.19334426522254944,0.19180402159690857,0.23983348906040192
1761914536724931000,4.36693115234375,0.12584544718265533,0.18330764770507812,0.2401857078075409
1761914536734987000,4.376987060546875,0.06893901526927948,0.20296363532543182,0.21976138651371002
1761914536745043000,4.38704296875,0.02599317766726017,0.22885410487651825,0.19782695174217224
1761914536755098000,4.39709814453125,-0.014183269813656807,0.27789995074272156,0.17810571193695068
1761914536765153800,4.40715380859375,-0.05422379449009895,0.35843199491500854,0.17366038262844086
1761914536775210000,4.4172099609375,-0.08031957596540451,0.471593976020813,0.1701069325208664
1761914536785265000,4.427264892578125,-0.06689578294754028,0.5835639834403992,0.17336329817771912
1761914536795321000,4.437321044921875,-0.016703186556696892,0.683093786239624,0.1766911894083023
1761914536805377000,4.447376953125,0.06191619113087654,0.7826014161109924,0.18168024718761444
1761914536815432200,4.45743212890625,0.161622554063797,0.8765151500701904,0.18840952217578888
1761914536825488100,4.467488037109375,0.2698289752006531,0.972545325756073,0.1997714340686798
1761914536835543800,4.477543701171875,0.39146754145622253,1.0536531209945679,0.21166324615478516
1761914536845600000,4.48760009765625,0.5214545130729675,1.0890886783599854,0.21376821398735046
1761914536855655000,4.497655029296875,0.6546847820281982,1.079329013824463,0.2040596604347229
1761914536865710800,4.5077109375,0.7841445207595825,1.0435956716537476,0.1935107558965683
1761914536875767000,4.51776708984375,0.898207426071167,1.0164365768432617,0.1896401196718216
1761914536885822000,4.527822021484375,0.9834322929382324,0.9896131753921509,0.18502667546272278
1761914536895878100,4.537878173828125,1.0350699424743652,0.9394093751907349,0.17513251304626465
1761914536905934000,4.54793408203125,1.0521795749664307,0.8578088879585266,0.14470958709716797
1761914536915989000,4.557989013671875,1.0339730978012085,0.760132908821106,0.10470543801784515
1761914536926045000,4.568044921875,0.9805667400360107,0.685404360294342,0.062223151326179504
1761914536936100900,4.578100830078125,0.9016439318656921,0.6539055705070496,0.02675464004278183
1761914536946152200,4.588152099609375,0.8186697959899902,0.6630492210388184,-0.0002655116841197014
1761914536956210200,4.598210205078125,0.7336419820785522,0.7044744491577148,-0.016250602900981903
1761914536966266000,4.60826611328125,0.6725274324417114,0.7879567742347717,-0.02131732925772667
1761914536976321300,4.6183212890625,0.6410201191902161,0.9421455264091492,-0.0048552644439041615
1761914536986377200,4.628377197265625,0.6457293629646301,1.0885953903198242,0.010605868883430958
1761914536996433200,4.63843310546875,0.6563367247581482,1.1412429809570312,0.011529720388352871
1761914537006489000,4.648489013671875,0.6692256927490234,1.104196310043335,-0.012217300944030285
1761914537016544000,4.6585439453125,0.7007671594619751,1.0055930614471436,-0.05606891214847565
1761914537026600200,4.66860009765625,0.7316027283668518,0.826090931892395,-0.11397255212068558
1761914537036656000,4.67865625,0.747941792011261,0.6026759743690491,-0.18348798155784607
1761914537046711300,4.688711181640625,0.7240473031997681,0.42507025599479675,-0.22237972915172577
1761914537056767200,4.698767333984375,0.6743298172950745,0.36362501978874207,-0.21454204618930817
1761914537066823200,4.7088232421875,0.624248743057251,0.33089470863342285,-0.16916891932487488
1761914537076878000,4.718878173828125,0.5833841562271118,0.28415969014167786,-0.1000036969780922
1761914537086934000,4.72893408203125,0.5788657069206238,0.27022504806518555,-0.009203783236443996
1761914537096990200,4.738990234375,0.612394392490387,0.3436228334903717,0.11188535392284393
1761914537107045000,4.749045166015625,0.6784700751304626,0.4909206032752991,0.24846744537353516
1761914537117101300,4.759101318359375,0.759585976600647,0.6496734619140625,0.3457103669643402
1761914537127157200,4.7691572265625,0.8337565064430237,0.7136722207069397,0.3769936263561249
1761914537137212200,4.779212158203125,0.8859608769416809,0.6897924542427063,0.34973376989364624
1761914537147268000,4.78926806640625,0.917095959186554,0.6360985636711121,0.2903306186199188
1761914537157324000,4.799323974609375,0.9171420335769653,0.5988297462463379,0.23233842849731445
1761914537167380000,4.8093798828125,0.8890061974525452,0.5778064727783203,0.17114043235778809
1761914537177435100,4.81943505859375,0.8215991854667664,0.5577637553215027,0.09836742281913757
1761914537187491000,4.829490966796875,0.7060782313346863,0.5161508321762085,0.010000761598348618
1761914537197547300,4.83954736328125,0.5632970929145813,0.46738675236701965,-0.07625929266214371
1761914537207602200,4.849602294921875,0.42768391966819763,0.47083184123039246,-0.13344326615333557
1761914537217658000,4.859658203125,0.3273266851902008,0.5179322361946106,-0.16469334065914154
1761914537227714000,4.869714111328125,0.2818257212638855,0.5799578428268433,-0.18065579235553741
1761914537237769200,4.879769287109375,0.29035449028015137,0.6583788394927979,-0.18712274730205536
1761914537247825200,4.8898251953125,0.3617840111255646,0.7961696982383728,-0.17859406769275665
1761914537257881000,4.899881103515625,0.4983610212802887,1.0046672821044922,-0.1739836037158966
1761914537267936300,4.909936279296875,0.6879779100418091,1.2447260618209839,-0.1758035570383072
1761914537277992200,4.9199921875,0.9050724506378174,1.4570335149765015,-0.19249865412712097
1761914537288048400,4.93004833984375,1.1049306392669678,1.6083053350448608,-0.22181835770606995
1761914537298104000,4.94010400390625,1.2477591037750244,1.6889727115631104,-0.24490131437778473
1761914537308159200,4.9501591796875,1.331683874130249,1.7182636260986328,-0.25338074564933777
1761914537318215200,4.960215087890625,1.3663965463638306,1.7199007272720337,-0.22508226335048676
1761914537328271000,4.97027099609375,1.3518935441970825,1.7283498048782349,-0.17283210158348083
1761914537338326300,4.980326171875,1.297839879989624,1.7502354383468628,-0.11076685786247253
1761914537348382200,4.99038232421875,1.2118163108825684,1.7588406801223755,-0.053532082587480545
1761914537358438100,5.000438232421875,1.1143171787261963,1.7379707098007202,-0.012568934820592403
1761914537368493000,5.0104931640625,1.0057950019836426,1.6729531288146973,-0.0005895271897315979
1761914537378549000,5.020549072265625,0.9137386679649353,1.5745501518249512,-0.0028478875756263733
1761914537388605200,5.030605224609375,0.8503390550613403,1.4456913471221924,-0.018551362678408623
1761914537398660000,5.04066015625,0.805385172367096,1.322379231452942,-0.04338773712515831
1761914537408716300,5.05071630859375,0.7881051301956177,1.2117042541503906,-0.07167196273803711
1761914537418772200,5.060772216796875,0.7912631034851074,1.116245985031128,-0.10709599405527115
1761914537428827100,5.0708271484375,0.8173738121986389,1.0201220512390137,-0.14632418751716614
1761914537438883000,5.080883056640625,0.8529584407806396,0.9363085031509399,-0.18103636801242828
1761914537448939000,5.09093896484375,0.8951589465141296,0.8874879479408264,-0.19403791427612305
1761914537458995200,5.1009951171875,0.9389922022819519,0.8418179154396057,-0.17971304059028625
1761914537469050000,5.111050048828125,0.9842608571052551,0.8103436231613159,-0.13512052595615387
1761914537479106300,5.121106201171875,1.024997591972351,0.810238778591156,-0.06068851053714752
1761914537489162200,5.131162353515625,1.0560863018035889,0.8261350393295288,0.019481083378195763
1761914537499217200,5.141217041015625,1.0629433393478394,0.8452605605125427,0.07652519643306732
1761914537509273000,5.151273193359375,1.0343133211135864,0.8823288083076477,0.09773048758506775
1761914537519329000,5.1613291015625,0.9826213121414185,0.9513505101203918,0.0844237357378006
1761914537529384200,5.17138427734375,0.9174062013626099,1.018087387084961,0.04887652397155762
1761914537539440000,5.181440185546875,0.8596858978271484,1.0665644407272339,0.003494660370051861
1761914537549496000,5.19149609375,0.8033727407455444,1.114253282546997,-0.03694648668169975
1761914537559551200,5.20155126953125,0.7409524917602539,1.162451148033142,-0.07617564499378204
1761914537569607200,5.211607177734375,0.6802543997764587,1.2224987745285034,-0.11369907855987549
1761914537579663000,5.2216630859375,0.6382963061332703,1.321997880935669,-0.14595049619674683
1761914537589719000,5.231718994140625,0.6135045289993286,1.405042290687561,-0.18084722757339478
1761914537599774200,5.241774169921875,0.5812911987304688,1.4274091720581055,-0.23030586540699005
1761914537609830100,5.251830078125,0.5287847518920898,1.4336954355239868,-0.3006604313850403
1761914537619886000,5.261885986328125,0.47475528717041016,1.468207597732544,-0.3814466595649719
1761914537629941200,5.271941162109375,0.4247027635574341,1.5180245637893677,-0.47474828362464905
1761914537639997200,5.2819970703125,0.3734488785266876,1.546007752418518,-0.5913302898406982
1761914537650053400,5.292053466796875,0.3174845278263092,1.5430021286010742,-0.7364845871925354
1761914537660108000,5.30210791015625,0.2788735032081604,1.4882272481918335,-0.9134809374809265
1761914537670164200,5.312164306640625,0.27954983711242676,1.3844467401504517,-1.1062365770339966
1761914537680220200,5.32222021484375,0.3459565341472626,1.2681822776794434,-1.2995706796646118
1761914537690275000,5.332275146484375,0.46083274483680725,1.1590999364852905,-1.4763261079788208
1761914537700331300,5.342331298828125,0.6242738962173462,1.0655980110168457,-1.6249799728393555
1761914537710387200,5.35238720703125,0.8387596607208252,1.0090651512145996,-1.70338773727417
1761914537720442000,5.362442138671875,1.0858179330825806,1.0341782569885254,-1.6931736469268799
1761914537730498000,5.372498046875,1.346753716468811,1.1360909938812256,-1.5672403573989868
1761914537740554000,5.382553955078125,1.577640175819397,1.3077751398086548,-1.3409557342529297
1761914537750610200,5.392610107421875,1.7251708507537842,1.5047752857208252,-1.0593525171279907
1761914537760665000,5.4026650390625,1.779786467552185,1.647860050201416,-0.7869282364845276
1761914537770721300,5.41272119140625,1.7720818519592285,1.6596215963363647,-0.5606608986854553
1761914537780777200,5.422777099609375,1.7428392171859741,1.5611920356750488,-0.3939552903175354
1761914537790832000,5.43283203125,1.6988900899887085,1.4085160493850708,-0.28461894392967224
1761914537800888000,5.44288818359375,1.6279817819595337,1.2366337776184082,-0.22020798921585083
1761914537810944000,5.452944091796875,1.4990276098251343,1.0342333316802979,-0.21311570703983307
1761914537820999200,5.462999267578125,1.2980687618255615,0.7644091248512268,-0.2693968117237091
1761914537831055000,5.47305517578125,1.0412410497665405,0.4527127146720886,-0.359113484621048
1761914537841111300,5.483111328125,0.7875953316688538,0.18801739811897278,-0.44889265298843384
1761914537851166200,5.493166259765625,0.5704282522201538,0.027046911418437958,-0.517331063747406
1761914537861222100,5.50322216796875,0.410958468914032,-0.04171084612607956,-0.5736995339393616
1761914537871278000,5.513278076171875,0.2841666340827942,-0.04701397567987442,-0.625312328338623
1761914537881334000,5.523333984375,0.19449934363365173,0.00541221396997571,-0.6800863742828369
1761914537891389200,5.53338916015625,0.13542546331882477,0.10995865613222122,-0.7324969172477722
1761914537901445000,5.543445068359375,0.11044900119304657,0.27489912509918213,-0.7789379358291626
1761914537911501000,5.5535009765625,0.13285161554813385,0.5053232908248901,-0.8051339983940125
1761914537921556200,5.56355615234375,0.18750633299350739,0.7506099939346313,-0.8053960800170898
1761914537931612200,5.573612060546875,0.2573823034763336,0.9498500823974609,-0.7683331966400146
1761914537941667600,5.58366748046875,0.31640753149986267,1.0697064399719238,-0.7069169878959656
1761914537951722500,5.593722412109375,0.3502224087715149,1.094908595085144,-0.6233319640159607
1761914537961778700,5.60377880859375,0.364594429731369,1.0517430305480957,-0.5103635787963867
1761914537971834600,5.613834716796875,0.36711034178733826,0.9798974394798279,-0.3752608597278595
1761914537981889800,5.623889892578125,0.34580719470977783,0.8666896820068359,-0.2324211448431015
1761914537991945700,5.63394580078125,0.3119497001171112,0.7115153670310974,-0.10050050169229507
1761914538002001700,5.644001708984375,0.26827093958854675,0.5412496328353882,0.010828956961631775
1761914538012057600,5.6540576171875,0.23357143998146057,0.3776966631412506,0.1000947505235672
1761914538022112500,5.664112548828125,0.22446182370185852,0.24657882750034332,0.16238048672676086
1761914538032168700,5.674168701171875,0.23964475095272064,0.1518147587776184,0.20479755103588104
1761914538042224600,5.684224609375,0.2706151604652405,0.10449916869401932,0.22952687740325928
1761914538052279800,5.69427978515625,0.31659382581710815,0.10385073721408844,0.24998706579208374
1761914538062335700,5.704335693359375,0.3670932352542877,0.13193750381469727,0.2600064277648926
1761914538072391700,5.7143916015625,0.40327078104019165,0.19453798234462738,0.2553856372833252
1761914538082446600,5.724446533203125,0.43729665875434875,0.25508496165275574,0.22056321799755096
1761914538092502500,5.73450244140625,0.47689536213874817,0.2994254231452942,0.16287168860435486
1761914538102558700,5.744558837890625,0.5259388089179993,0.31681588292121887,0.08008785545825958
1761914538112614700,5.75461474609375,0.5887551307678223,0.3189097046852112,0.0067077577114105225
1761914538122669800,5.764669921875,0.6680917739868164,0.3586576581001282,-0.023065317422151566
1761914538132725800,5.774725830078125,0.7478668093681335,0.4583240747451782,-0.00010303501039743423
1761914538142781700,5.78478173828125,0.817007303237915,0.5674508213996887,0.05637967959046364
1761914538152836600,5.794836669921875,0.8631653785705566,0.6642012596130371,0.11922185122966766
1761914538162892500,5.804892578125,0.892651379108429,0.7230022549629211,0.17189890146255493
1761914538172948500,5.814948486328125,0.927800714969635,0.7536495923995972,0.20857946574687958
1761914538183003600,5.825003662109375,0.985848069190979,0.7887380719184875,0.25084277987480164
1761914538193059600,5.8350595703125,1.0926669836044312,0.8978242874145508,0.3243022859096527
1761914538203115800,5.84511572265625,1.245023250579834,1.0125412940979004,0.4113312065601349
1761914538213170700,5.855170654296875,1.3689309358596802,0.9402592182159424,0.42288339138031006
1761914538223226600,5.8652265625,1.3630168437957764,0.5225847363471985,0.27954035997390747
1761914538233282600,5.875282470703125,1.2600491046905518,-0.0103217251598835,0.05965269356966019
1761914538243338500,5.88533837890625,1.0875370502471924,-0.3573598265647888,-0.12101268768310547
1761914538253393700,5.8953935546875,0.865303099155426,-0.4760294556617737,-0.21491608023643494
1761914538263449600,5.90544970703125,0.6073186993598938,-0.477200448513031,-0.24647612869739532
1761914538273505800,5.915505859375,0.3590719699859619,-0.43784427642822266,-0.2365800142288208
1761914538283560700,5.925560791015625,0.1780579686164856,-0.3162395656108856,-0.19495853781700134
1761914538293617000,5.935616943359375,0.11013944447040558,-0.06792990863323212,-0.12621094286441803
1761914538303672600,5.945672607421875,0.15963083505630493,0.32566186785697937,-0.0455070398747921
1761914538313727700,5.955727783203125,0.2901783883571625,0.7089802622795105,0.004638456739485264
1761914538323783700,5.96578369140625,0.4264558255672455,0.9060816168785095,-0.02941591665148735
1761914538333839600,5.975839599609375,0.5335580706596375,0.8935138583183289,-0.14877240359783173
1761914538343894800,5.985894775390625,0.6117623448371887,0.7737525701522827,-0.31020843982696533
1761914538353950700,5.99595068359375,0.6754612326622009,0.6224491596221924,-0.4655994176864624
1761914538364006700,6.006006591796875,0.7155551314353943,0.48227283358573914,-0.5782002806663513
1761914538374062600,6.0160625,0.7332718372344971,0.386466383934021,-0.6158077716827393
1761914538384117500,6.026117431640625,0.7233073115348816,0.3585394024848938,-0.5750185251235962
1761914538394173700,6.036173583984375,0.6907974481582642,0.37772905826568604,-0.46466225385665894
1761914538404229600,6.046229736328125,0.6413124799728394,0.4251335859298706,-0.30309173464775085
1761914538414284800,6.056284912109375,0.6124824285507202,0.4842296540737152,-0.12959901988506317
1761914538424340700,6.0663408203125,0.638421356678009,0.5855584144592285,0.04899388551712036
1761914538434396700,6.076396728515625,0.7213180661201477,0.7006362676620483,0.20150534808635712
1761914538444451600,6.08645166015625,0.8395922183990479,0.8188965916633606,0.31375280022621155
1761914538454507500,6.096507568359375,0.9830662608146667,0.9287887215614319,0.37592029571533203
1761914538464563700,6.106563720703125,1.1286460161209106,1.0207269191741943,0.39346012473106384
1761914538474618600,6.11661865234375,1.2704085111618042,1.0838117599487305,0.3649413287639618
1761914538484674800,6.1266748046875,1.3969589471817017,1.125548005104065,0.3060615062713623
1761914538494730800,6.136730712890625,1.5011950731277466,1.1453778743743896,0.23270198702812195
1761914538504786700,6.14678662109375,1.57088303565979,1.1523844003677368,0.15675608813762665
1761914538514841600,6.156841552734375,1.6134265661239624,1.176770567893982,0.09154260158538818
1761914538524897500,6.1668974609375,1.6172183752059937,1.2406198978424072,0.037158723920583725
1761914538534953500,6.176953369140625,1.580649971961975,1.3017433881759644,-0.023536112159490585
1761914538545008600,6.187008544921875,1.5182875394821167,1.3104248046875,-0.10878895968198776
1761914538555064600,6.197064697265625,1.4386987686157227,1.2541908025741577,-0.20962822437286377
1761914538565120800,6.207120849609375,1.3562062978744507,1.1433560848236084,-0.3175097107887268
1761914538575175700,6.21717578125,1.2744656801223755,1.0102771520614624,-0.40832483768463135
1761914538585231600,6.227231689453125,1.2090445756912231,0.9119982719421387,-0.4704750180244446
1761914538595287600,6.23728759765625,1.162775993347168,0.8593111038208008,-0.5108401775360107
1761914538605343500,6.247343505859375,1.1328569650650024,0.8303348422050476,-0.5398949384689331
1761914538615398700,6.257398681640625,1.1165647506713867,0.801069974899292,-0.5697433352470398
1761914538625454600,6.26745458984375,1.1064183712005615,0.7531943321228027,-0.5906270742416382
1761914538635510800,6.2775107421875,1.0971430540084839,0.6823205947875977,-0.5907052755355835
1761914538645565700,6.287565673828125,1.092742681503296,0.6000257134437561,-0.5484870076179504
1761914538655622000,6.297621826171875,1.0687299966812134,0.5387227535247803,-0.464142769575119
1761914538665677600,6.307677490234375,1.031482219696045,0.5036182999610901,-0.3284249007701874
1761914538675732700,6.317732666015625,0.9800803065299988,0.49799370765686035,-0.15103355050086975
1761914538685788700,6.32778857421875,0.912592351436615,0.5211365818977356,0.04978556931018829
1761914538695844600,6.3378447265625,0.8285276889801025,0.557707667350769,0.24037334322929382
1761914538705899800,6.347899658203125,0.7310211062431335,0.6007294058799744,0.41353127360343933
1761914538715955700,6.357955810546875,0.618874192237854,0.653737485408783,0.5631159543991089
1761914538726011600,6.36801171875,0.5241007804870605,0.7698910236358643,0.6929594278335571
1761914538736067800,6.37806787109375,0.4677904546260834,0.956706702709198,0.7970522046089172
1761914538746122500,6.38812255859375,0.4607006013393402,1.1745412349700928,0.8618074655532837
1761914538756178700,6.3981787109375,0.4408998191356659,1.3448271751403809,0.868094265460968
1761914538766234600,6.408234619140625,0.3940367102622986,1.45188570022583,0.8044527173042297
1761914538776289800,6.418289794921875,0.307874470949173,1.5047180652618408,0.6690142750740051
1761914538786345700,6.428345703125,0.20008358359336853,1.5074275732040405,0.47928112745285034
1761914538796401700,6.438401611328125,0.07937643676996231,1.4428472518920898,0.2415996640920639
1761914538806456600,6.44845654296875,-0.054174426943063736,1.2669938802719116,-0.043532732874155045
1761914538816512500,6.458512451171875,-0.18538378179073334,1.016707420349121,-0.36099773645401
1761914538826568700,6.468568603515625,-0.26417046785354614,0.7991700768470764,-0.649412989616394
1761914538836623600,6.47862353515625,-0.24879246950149536,0.6820096969604492,-0.8705001473426819
1761914538846679800,6.4886796875,-0.14797930419445038,0.6651750206947327,-0.9900369048118591
1761914538856735700,6.49873583984375,0.013136245310306549,0.7329304218292236,-1.012300968170166
1761914538866791700,6.508791748046875,0.22099383175373077,0.8498509526252747,-0.9285949468612671
1761914538876846600,6.5188466796875,0.4387321174144745,1.037392497062683,-0.7527698278427124
1761914538886902500,6.528902587890625,0.6304083466529846,1.279176950454712,-0.5169314742088318
1761914538896958500,6.53895849609375,0.7639057636260986,1.5108753442764282,-0.2817981243133545
1761914538907013600,6.549013671875,0.829322338104248,1.6379411220550537,-0.08995812386274338
1761914538917069600,6.559069580078125,0.8537418842315674,1.6693626642227173,0.03673434257507324
1761914538927125800,6.569125732421875,0.851000964641571,1.6337839365005493,0.1082703098654747
1761914538937184000,6.57918408203125,0.8327023386955261,1.5301275253295898,0.12365496158599854
1761914538947240200,6.589240234375,0.8023316860198975,1.3749808073043823,0.0850529745221138
1761914538957296000,6.599296142578125,0.7664147019386292,1.1654353141784668,-0.0008719386532902718
1761914538967351300,6.609351318359375,0.729214072227478,0.9179003834724426,-0.09680326282978058
1761914538977407200,6.6194072265625,0.6831183433532715,0.6357393264770508,-0.18505315482616425
1761914538987463000,6.629462890625,0.6512104868888855,0.4002876579761505,-0.22442851960659027
1761914538997519000,6.63951904296875,0.631781280040741,0.25184062123298645,-0.21541166305541992
1761914539007574000,6.649573974609375,0.6242096424102783,0.187353253364563,-0.16015081107616425
1761914539017630200,6.659630126953125,0.6093743443489075,0.21111585199832916,-0.08481113612651825
1761914539027686100,6.66968603515625,0.5989128947257996,0.2962890863418579,-0.00875498540699482
1761914539037741300,6.6797412109375,0.5810343027114868,0.3874596655368805,0.03660382702946663
1761914539047797200,6.68979736328125,0.5509536266326904,0.4456569254398346,0.04769802466034889
1761914539057853200,6.699853271484375,0.5094178915023804,0.47672808170318604,0.03275911882519722
1761914539067908000,6.709908203125,0.4509407579898834,0.5076563954353333,0.008290793746709824
1761914539077964000,6.719964111328125,0.3917810320854187,0.542091965675354,-0.017274340614676476
1761914539088020000,6.73002001953125,0.3487376868724823,0.5594419240951538,-0.04858566075563431
1761914539098075100,6.7400751953125,0.3217228949069977,0.5600210428237915,-0.07712800055742264
1761914539108131000,6.750131103515625,0.294607937335968,0.5126975178718567,-0.11697661876678467
1761914539118187300,6.760187255859375,0.23762710392475128,0.4136987626552582,-0.16787661612033844
1761914539128243200,6.7702431640625,0.1501459926366806,0.3210521936416626,-0.20353715121746063
1761914539138298000,6.780298095703125,0.01173914223909378,0.2499178946018219,-0.21611957252025604
1761914539148354000,6.79035400390625,-0.16032102704048157,0.2041970044374466,-0.20025965571403503
1761914539158410000,6.800409912109375,-0.3445262014865875,0.18734614551067352,-0.19145134091377258
1761914539168465200,6.810465087890625,-0.4983423948287964,0.17363965511322021,-0.19582505524158478
1761914539178521000,6.82052099609375,-0.6030997633934021,0.14957475662231445,-0.23768733441829681
1761914539188577300,6.830577392578125,-0.652056872844696,0.107645682990551,-0.32787024974823
1761914539198632000,6.8406318359375,-0.6414557099342346,0.0476963184773922,-0.45799949765205383
1761914539208688000,6.850688232421875,-0.574087381362915,-0.004995920229703188,-0.60036700963974
1761914539218744000,6.860744140625,-0.4561270475387573,-0.0071034817956388,-0.7302011847496033
1761914539228799200,6.87079931640625,-0.30683210492134094,0.032808780670166016,-0.8386355042457581
1761914539238855200,6.880855224609375,-0.13744647800922394,0.06618349254131317,-0.924027681350708
1761914539248911000,6.8909111328125,0.035069629549980164,0.06045316532254219,-0.9929793477058411
1761914539258967000,6.900967041015625,0.18828125298023224,-0.007258258759975433,-1.0456401109695435
1761914539269022200,6.911022216796875,0.32219433784484863,-0.1573670655488968,-1.0870229005813599
1761914539279078000,6.921077880859375,0.43649378418922424,-0.3631228506565094,-1.119239330291748
1761914539289134000,6.931134033203125,0.5363301038742065,-0.5495499968528748,-1.1355810165405273
1761914539299189000,6.94118896484375,0.6368852257728577,-0.6806537508964539,-1.1189483404159546
1761914539309245200,6.9512451171875,0.7153694033622742,-0.6889563798904419,-1.0604288578033447
1761914539319301000,6.961301025390625,0.7620066404342651,-0.6066988110542297,-0.9871005415916443
1761914539329356300,6.971356201171875,0.785117506980896,-0.48249462246894836,-0.9147749543190002
1761914539339412200,6.981412109375,0.7860543131828308,-0.3297114074230194,-0.8295659422874451
1761914539349468200,6.99146826171875,0.7782025337219238,-0.13818350434303284,-0.7034268975257874
1761914539359523000,7.001523193359375,0.7465656399726868,0.12046688795089722,-0.5320926904678345
1761914539369579000,7.0115791015625,0.6837241053581238,0.3772693872451782,-0.35174795985221863
1761914539379635200,7.02163525390625,0.6230250000953674,0.5660092830657959,-0.19436565041542053
1761914539389691100,7.031691162109375,0.6002493500709534,0.7523820996284485,-0.04423126205801964
1761914539399746300,7.041746337890625,0.6405858397483826,0.915460467338562,0.10205105692148209
1761914539409802200,7.05180224609375,0.7100863456726074,0.9965859055519104,0.22892245650291443
1761914539419858200,7.061858154296875,0.7715319991111755,0.9962543249130249,0.32374271750450134
1761914539429913000,7.0719130859375,0.8156081438064575,0.8627201914787292,0.3888237178325653
1761914539439969000,7.081968994140625,0.8464080095291138,0.5224491953849792,0.41915223002433777
1761914539450025000,7.09202490234375,0.8709061741828918,-0.006531014107167721,0.3951859176158905
1761914539460080000,7.102080078125,0.8774885535240173,-0.5830910205841064,0.32655400037765503
1761914539470136000,7.112135986328125,0.8735401630401611,-1.011625051498413,0.2604205012321472
1761914539480192300,7.122192138671875,0.8666471838951111,-1.236631155014038,0.19294527173042297
1761914539490247000,7.132246826171875,0.8705788254737854,-1.292285680770874,0.12180611491203308
1761914539500303000,7.14230322265625,0.8808957934379578,-1.2212504148483276,0.06620293855667114
1761914539510359000,7.152359130859375,0.9114230871200562,-0.9905602335929871,0.05208924412727356
1761914539520415000,7.1624150390625,0.9779431819915771,-0.6424234509468079,0.10613598674535751
1761914539530470100,7.17247021484375,1.0716947317123413,-0.295562744140625,0.19049879908561707
1761914539540526000,7.182526123046875,1.128297209739685,-0.10456147789955139,0.2602458596229553
1761914539550582300,7.192582275390625,1.1092417240142822,-0.05484425649046898,0.29215317964553833
1761914539560637000,7.202636962890625,1.0134782791137695,0.016844676807522774,0.31038761138916016
1761914539570693000,7.212693115234375,0.9110054969787598,0.12418337911367416,0.32230499386787415
1761914539580749000,7.2227490234375,0.8650438189506531,0.1989087015390396,0.33516159653663635
1761914539590804200,7.23280419921875,0.8729443550109863,0.24868452548980713,0.3305908143520355
1761914539600860200,7.242860107421875,0.8959272503852844,0.2970110774040222,0.2967471480369568
1761914539610916000,7.252916015625,0.922774076461792,0.34702470898628235,0.22812174260616302
1761914539620972000,7.262971923828125,0.9448443651199341,0.3729825019836426,0.13528525829315186
1761914539631027200,7.273027099609375,0.9462832808494568,0.3661903738975525,0.023593608289957047
1761914539641083000,7.283082763671875,0.9168328642845154,0.3524327576160431,-0.0789525955915451
1761914539651139000,7.29313916015625,0.8644644618034363,0.35780462622642517,-0.14374491572380066
1761914539661194000,7.303194091796875,0.8050246834754944,0.40450048446655273,-0.15733851492404938
1761914539671250200,7.313250244140625,0.7662855386734009,0.48803532123565674,-0.13828812539577484
1761914539681306000,7.32330615234375,0.7560608983039856,0.5748277902603149,-0.10917762666940689
1761914539691361300,7.333361328125,0.7775856256484985,0.6369585394859314,-0.10020916908979416
1761914539701417200,7.343417236328125,0.8240043520927429,0.6739665269851685,-0.11160502582788467
1761914539711473200,7.35347314453125,0.8700964450836182,0.6772601008415222,-0.12922663986682892
1761914539721528000,7.363528076171875,0.9082623720169067,0.6619985699653625,-0.1260620355606079
1761914539731584000,7.373583984375,0.9357028007507324,0.6526167988777161,-0.08259844034910202
1761914539741640200,7.38364013671875,0.9475069046020508,0.6712785363197327,0.015320769511163235
1761914539751695000,7.393695068359375,0.9499309659004211,0.7092648148536682,0.1356051117181778
1761914539761751300,7.403751220703125,0.9416033625602722,0.745941162109375,0.2488805055618286
1761914539771807200,7.41380712890625,0.9256475567817688,0.7469344735145569,0.30898138880729675
1761914539781863200,7.42386328125,0.8845821022987366,0.6879756450653076,0.3007775545120239
1761914539791918000,7.43391796875,0.8262208104133606,0.5866245031356812,0.23240676522254944
1761914539801974000,7.44397412109375,0.7389770746231079,0.48868757486343384,0.1427224725484848
1761914539812030000,7.454030029296875,0.6479344964027405,0.4260292649269104,0.06348676979541779
1761914539822085000,7.464085205078125,0.5741437077522278,0.4155256748199463,0.02052212506532669
1761914539832141000,7.47414111328125,0.5390030741691589,0.4336117208003998,-0.0008452162146568298
1761914539842197200,7.484197265625,0.5449607372283936,0.4556497633457184,-0.015967413783073425
1761914539852252000,7.494251953125,0.5770920515060425,0.4823809862136841,-0.01707156002521515
1761914539862308000,7.50430810546875,0.6263233423233032,0.5104432106018066,-0.02092575840651989
1761914539872364000,7.514364013671875,0.6647847294807434,0.5156909227371216,-0.030322454869747162
1761914539882419200,7.524419189453125,0.6650531888008118,0.45584651827812195,-0.05882200598716736
1761914539892475100,7.53447509765625,0.6386439204216003,0.36562874913215637,-0.10067305713891983
1761914539902531000,7.544531005859375,0.6033576130867004,0.2989005446434021,-0.1341855227947235
1761914539912587300,7.554587158203125,0.5686201453208923,0.27704185247421265,-0.15401116013526917
1761914539922642200,7.56464208984375,0.5291582942008972,0.2501235902309418,-0.16681018471717834
1761914539932698000,7.574697998046875,0.4911342263221741,0.20824645459651947,-0.17474479973316193
1761914539942751000,7.5847509765625,0.4532088041305542,0.16237257421016693,-0.16323812305927277
1761914539952805600,7.5948056640625,0.4155849814414978,0.11867091059684753,-0.1379988044500351
1761914539962861800,7.60486181640625,0.3867166340351105,0.10877931118011475,-0.0881725400686264
1761914539972917800,7.614917724609375,0.37331268191337585,0.1468507945537567,-0.0034512588754296303
1761914539982973000,7.624972900390625,0.3791258931159973,0.23461449146270752,0.10321702808141708
1761914539993028900,7.63502880859375,0.38612067699432373,0.3690902590751648,0.20925956964492798
1761914540003084800,7.645084716796875,0.38894322514533997,0.4877743721008301,0.2688884735107422
1761914540013140000,7.655139892578125,0.38869956135749817,0.5331466197967529,0.27118968963623047
1761914540023195600,7.665195556640625,0.3673025667667389,0.48859214782714844,0.21092082560062408
1761914540033251800,7.675251953125,0.3226189911365509,0.36414289474487305,0.10423298925161362
1761914540043307800,7.685307861328125,0.2484094798564911,0.1762789785861969,-0.054103389382362366
1761914540053363000,7.695363037109375,0.148023784160614,-0.04353208467364311,-0.24487781524658203
1761914540063419000,7.7054189453125,0.053151462227106094,-0.20449092984199524,-0.428438663482666
1761914540073474800,7.715474853515625,-0.01400440651923418,-0.2543567419052124,-0.5642005205154419
1761914540083530000,7.725530029296875,-0.050099994987249374,-0.24952419102191925,-0.6492198705673218
1761914540093586000,7.7355859375,-0.06457161158323288,-0.2241157740354538,-0.6822577714920044
1761914540103641900,7.745641845703125,-0.06615595519542694,-0.19730207324028015,-0.6686322093009949
1761914540113696800,7.75569677734375,-0.05838298425078392,-0.13388608396053314,-0.6108019351959229
1761914540123753000,7.7657529296875,-0.034345727413892746,0.0019272295758128166,-0.5077757239341736
1761914540133809000,7.775808837890625,-0.0013491640565916896,0.20801381766796112,-0.3612515330314636
1761914540143863800,7.78586376953125,0.031923502683639526,0.4251154959201813,-0.19922614097595215
1761914540153920000,7.795919921875,0.060325849801301956,0.542548418045044,-0.047236330807209015
1761914540163976000,7.805975830078125,0.08815261721611023,0.5534606575965881,0.0792994499206543
1761914540174032000,7.816031982421875,0.12067408114671707,0.4978996515274048,0.1805054247379303
1761914540184086800,7.826086669921875,0.1672196090221405,0.4190930724143982,0.25771138072013855
1761914540194142700,7.836142822265625,0.2238759696483612,0.33744293451309204,0.3057532012462616
1761914540204199000,7.846198974609375,0.2732747495174408,0.24999818205833435,0.31552064418792725
1761914540214253800,7.85625390625,0.2975926101207733,0.11827822774648666,0.27227410674095154
1761914540224310000,7.86631005859375,0.2895970642566681,-0.054076433181762695,0.18862460553646088
1761914540234366000,7.876365966796875,0.2537067234516144,-0.23447443544864655,0.10022150725126266
1761914540244420900,7.8864208984375,0.20671339333057404,-0.35527753829956055,0.04332562908530235
1761914540254476800,7.896476806640625,0.14449982345104218,-0.4167957603931427,0.0168285071849823
1761914540264532700,7.90653271484375,0.08094494789838791,-0.43951916694641113,0.023037642240524292
1761914540274588000,7.916587890625,0.027278786525130272,-0.42534077167510986,0.046220727264881134
1761914540284643800,7.926643798828125,-0.019404130056500435,-0.3698465824127197,0.08552198112010956
1761914540294700000,7.936699951171875,-0.06564886122941971,-0.3056817352771759,0.13028545677661896
1761914540304756000,7.946755859375,-0.11342869699001312,-0.26142534613609314,0.1565772444009781
1761914540314811000,7.956810791015625,-0.16749538481235504,-0.23345254361629486,0.1690773218870163
1761914540324866800,7.96686669921875,-0.22285452485084534,-0.1891053467988968,0.17339424788951874
1761914540334922800,7.9769228515625,-0.2793915569782257,-0.1285352110862732,0.18091155588626862
1761914540344978000,7.98697802734375,-0.33603620529174805,-0.0616789236664772,0.19484153389930725
1761914540355033900,7.997033935546875,-0.3889816999435425,-0.04947126284241676,0.19763466715812683
1761914540365089800,8.00708984375,-0.43460479378700256,-0.07903311401605606,0.20061638951301575
1761914540375143000,8.017142822265624,-0.47879064083099365,-0.1321573108434677,0.19995352625846863
1761914540385198800,8.02719873046875,-0.5270379185676575,-0.20436769723892212,0.1974184662103653
1761914540395254800,8.0372548828125,-0.5793637037277222,-0.29151561856269836,0.18465712666511536
1761914540405311000,8.04731103515625,-0.6321072578430176,-0.35625094175338745,0.1760367602109909
1761914540415366000,8.057365966796874,-0.6649445295333862,-0.36248406767845154,0.179447740316391
1761914540425422000,8.067422119140625,-0.6805754899978638,-0.3284435272216797,0.1890329271554947
1761914540435478000,8.07747802734375,-0.6752244234085083,-0.29527705907821655,0.19505645334720612
1761914540445532700,8.08753271484375,-0.6570712327957153,-0.2750071883201599,0.18729424476623535
1761914540455588900,8.0975888671875,-0.6260475516319275,-0.26362884044647217,0.16540305316448212
1761914540465644800,8.107644775390625,-0.5966424345970154,-0.25420016050338745,0.1277056485414505
1761914540475700000,8.117699951171875,-0.5703279972076416,-0.23794317245483398,0.07909177988767624
1761914540485756000,8.127755859375,-0.5477758646011353,-0.21682165563106537,0.02055959403514862
1761914540495811800,8.137811767578125,-0.5222675800323486,-0.20799539983272552,-0.04209020361304283
1761914540505866800,8.14786669921875,-0.48990562558174133,-0.24071650207042694,-0.10624507069587708
1761914540515922700,8.157922607421876,-0.43271902203559875,-0.2840099334716797,-0.1419956088066101
1761914540525979000,8.167978759765624,-0.35019397735595703,-0.28411564230918884,-0.13825523853302002
1761914540536033800,8.17803369140625,-0.25542566180229187,-0.23459738492965698,-0.0994495302438736
1761914540546090000,8.188090087890625,-0.13558277487754822,-0.12349198013544083,-0.024747977033257484
1761914540556146000,8.19814599609375,-0.013507992029190063,0.05395284295082092,0.08491833508014679
1761914540566201900,8.208201904296875,0.08897340297698975,0.16347800195217133,0.20016488432884216
1761914540576256800,8.2182568359375,0.15424588322639465,0.10476168990135193,0.27879443764686584
1761914540586312700,8.228312744140625,0.19880962371826172,-0.07677236199378967,0.3338034451007843
1761914540596369000,8.238368896484374,0.21075843274593353,-0.27335891127586365,0.38201066851615906
1761914540606423800,8.248423828125,0.18918420374393463,-0.452600359916687,0.4069613814353943
1761914540616480000,8.25847998046875,0.13879559934139252,-0.6067699193954468,0.3788226842880249
1761914540626536000,8.268535888671876,0.08796250075101852,-0.6780917644500732,0.31025534868240356
1761914540636590800,8.2785908203125,0.0674431174993515,-0.6384506225585938,0.22170709073543549
1761914540646647000,8.28864697265625,0.057371605187654495,-0.5198595523834229,0.12113483995199203
1761914540656702700,8.29870263671875,0.04126347601413727,-0.3323325216770172,0.03520927578210831
1761914540666758000,8.3087578125,0.03906294330954552,-0.07771811634302139,-0.008559176698327065
1761914540676813800,8.318813720703124,0.06741229444742203,0.2053934931755066,0.0005493666976690292
1761914540686869800,8.328869873046875,0.12616895139217377,0.46894797682762146,0.059915609657764435
1761914540696926000,8.338926025390625,0.1949075311422348,0.6696818470954895,0.1522119790315628
1761914540706980900,8.34898095703125,0.24041622877120972,0.7559564113616943,0.23713921010494232
1761914540717037000,8.359037109375,0.25357571244239807,0.7323964834213257,0.28776562213897705
1761914540727093000,8.369093017578125,0.2521137297153473,0.6556938290596008,0.2967580556869507
1761914540737148000,8.37914794921875,0.24392318725585938,0.5532207489013672,0.2780616283416748
1761914540747203800,8.389203857421874,0.2203269749879837,0.4311118423938751,0.23305386304855347
1761914540757259800,8.399259765625,0.17831002175807953,0.29385998845100403,0.1687702238559723
1761914540767315000,8.40931494140625,0.10855846107006073,0.18233241140842438,0.10786789655685425
1761914540777371000,8.419370849609376,0.031799767166376114,0.1209164559841156,0.05775945633649826
1761914540787427000,8.429427001953124,-0.03873385116457939,0.08988313376903534,0.018717985600233078
1761914540797481700,8.439481689453125,-0.08149170130491257,0.09787048399448395,-0.011934999376535416
1761914540807538000,8.449537841796875,-0.0863233432173729,0.1357254832983017,-0.03669758141040802
1761914540817593900,8.45959375,-0.0577034167945385,0.19558268785476685,-0.0610780194401741
1761914540827649800,8.46964990234375,0.0021554238628596067,0.26849016547203064,-0.09073353558778763
1761914540837705000,8.479705078125,0.09448108822107315,0.3334542512893677,-0.11567483842372894
1761914540847761000,8.489760986328125,0.21828915178775787,0.3873467743396759,-0.12490895390510559
1761914540857816800,8.49981689453125,0.36609378457069397,0.44524574279785156,-0.12059330195188522
1761914540867871700,8.509871826171874,0.5015111565589905,0.4965219497680664,-0.11400321871042252
1761914540877927700,8.519927734375,0.6050673723220825,0.5340999960899353,-0.12101239711046219
1761914540887983900,8.52998388671875,0.6568828225135803,0.5354734659194946,-0.1407128870487213
1761914540898038800,8.540038818359376,0.6663844585418701,0.4859394431114197,-0.17644798755645752
1761914540908095000,8.550094970703125,0.6477466225624084,0.41478827595710754,-0.21622377634048462
1761914540918151000,8.56015087890625,0.623121976852417,0.34601452946662903,-0.25380897521972656
1761914540928206000,8.5702060546875,0.5907734036445618,0.2738698124885559,-0.29520758986473083
1761914540938261800,8.58026171875,0.555125892162323,0.19138000905513763,-0.3631879985332489
1761914540948317400,8.5903173828125,0.509360671043396,0.0967029556632042,-0.4581066071987152
1761914540958373600,8.60037353515625,0.47362691164016724,-0.003016714472323656,-0.5626250505447388
1761914540968429600,8.6104296875,0.4500030279159546,-0.0954323559999466,-0.6566147208213806
1761914540978485500,8.620485595703125,0.4432410001754761,-0.16063080728054047,-0.7123932838439941
1761914540988541700,8.630541748046875,0.44390371441841125,-0.1823747307062149,-0.719260573387146
1761914540998596400,8.640596435546875,0.44682762026786804,-0.15854983031749725,-0.6950891613960266
1761914541008652500,8.650652587890624,0.45360392332077026,-0.07961883395910263,-0.6465238332748413
1761914541018708500,8.66070849609375,0.46481263637542725,0.008705702610313892,-0.5941820740699768
1761914541028763600,8.670763671875,0.4892481863498688,0.06905272603034973,-0.5423088669776917
1761914541038819600,8.680819580078126,0.5168688893318176,0.10666482150554657,-0.4703516364097595
1761914541048875500,8.69087548828125,0.5460200309753418,0.14382286369800568,-0.3763505518436432
1761914541058930400,8.700930419921875,0.5550824999809265,0.18337373435497284,-0.2744249701499939
1761914541068986400,8.710986328125,0.5505446791648865,0.22100971639156342,-0.1788109540939331
1761914541079042600,8.72104248046875,0.5299645662307739,0.20197850465774536,-0.1180804967880249
1761914541089097500,8.731097412109374,0.4997560381889343,0.12133989483118057,-0.09132403880357742
1761914541099153400,8.7411533203125,0.45653265714645386,0.04128847271203995,-0.08534790575504303
1761914541109209600,8.751209716796875,0.41426873207092285,-0.022020209580659866,-0.08510558307170868
1761914541119265500,8.761265625,0.3668479323387146,-0.08418131619691849,-0.09340985119342804
1761914541129320400,8.771320556640624,0.310662180185318,-0.15252600610256195,-0.09954507648944855
1761914541139376400,8.78137646484375,0.2559502124786377,-0.2047785520553589,-0.09800230711698532
1761914541149432300,8.791432373046876,0.19966796040534973,-0.24705706536769867,-0.07363657653331757
1761914541159487500,8.801487548828124,0.14681220054626465,-0.23738740384578705,-0.026443496346473694
1761914541169543400,8.81154345703125,0.10818970948457718,-0.15141786634922028,0.048294439911842346
1761914541179599600,8.821599609375,0.08368570357561111,0.021713167428970337,0.12938503921031952
1761914541189654500,8.831654541015626,0.05605018138885498,0.22658053040504456,0.1823500692844391
1761914541199710500,8.84171044921875,0.025936219841241837,0.3628707230091095,0.1712699830532074
1761914541209766400,8.851766357421875,-0.0005843709222972393,0.4104614555835724,0.1062333881855011
1761914541219821600,8.861821533203125,-0.019968189299106598,0.4009675681591034,0.016951709985733032
1761914541229877500,8.87187744140625,-0.04247702285647392,0.3753766417503357,-0.08183164894580841
1761914541239933400,8.881933349609374,-0.0568985752761364,0.3656310737133026,-0.17834433913230896
1761914541249989600,8.89198974609375,-0.05803987383842468,0.36144065856933594,-0.2748795747756958
1761914541260044500,8.90204443359375,-0.038552191108465195,0.3178825378417969,-0.37977272272109985
1761914541270100500,8.9121005859375,0.0007839646423235536,0.22904498875141144,-0.4942575991153717
1761914541280156400,8.922156494140625,0.031573567539453506,0.0997312143445015,-0.6051881313323975
1761914541290211300,8.93221142578125,0.04898372292518616,-0.06476214528083801,-0.6874510645866394
1761914541300267500,8.942267578125,0.04197721183300018,-0.23573923110961914,-0.7225334048271179
1761914541310323500,8.952323486328124,0.0196071844547987,-0.4426462650299072,-0.7068313360214233
1761914541320378600,8.962378662109375,-0.025912895798683167,-0.5983090996742249,-0.6138126850128174
1761914541330434600,8.9724345703125,-0.0727691501379013,-0.6188098788261414,-0.4463587999343872
1761914541340490500,8.982490478515626,-0.1132100448012352,-0.46091532707214355,-0.2155468910932541
1761914541350545400,8.99254541015625,-0.11537843197584152,-0.2050885707139969,0.036133214831352234
1761914541360601300,9.002601318359375,-0.09281186759471893,0.05759285017848015,0.2521701753139496
1761914541370657500,9.012657470703125,-0.057792697101831436,0.26864564418792725,0.4131283760070801
1761914541380712400,9.02271240234375,-0.019558491185307503,0.32408466935157776,0.5081084370613098
1761914541390768600,9.0327685546875,0.02178112231194973,0.2915404140949249,0.5620923042297363
1761914541400824600,9.042824462890625,0.07861803472042084,0.24848265945911407,0.586329996585846
1761914541410880500,9.052880615234375,0.10497624427080154,0.2036675214767456,0.5713534951210022
1761914541420935400,9.062935302734376,0.07555683702230453,0.14984184503555298,0.5029051899909973
1761914541430991400,9.072991455078125,0.008741420693695545,0.09909980744123459,0.3985740840435028
1761914541441047600,9.083047607421875,-0.07633885741233826,0.04824434593319893,0.2868209183216095
1761914541451102500,9.0931025390625,-0.16807851195335388,0.013796856626868248,0.19622401893138885
1761914541461158400,9.103158447265624,-0.24232664704322815,-0.021058328449726105,0.12868624925613403
1761914541471214600,9.113214599609375,-0.306059867143631,-0.053272150456905365,0.09798126667737961
1761914541481269500,9.12326953125,-0.3456224501132965,-0.07783528417348862,0.09494233131408691
1761914541491325400,9.133325439453126,-0.3664350211620331,-0.08919527381658554,0.10198890417814255
1761914541501381400,9.14338134765625,-0.36484190821647644,-0.09472639113664627,0.1150360032916069
1761914541511436500,9.1534365234375,-0.3403335511684418,-0.10121326148509979,0.11342234164476395
1761914541521492500,9.163492431640625,-0.3091375231742859,-0.1068277359008789,0.1085817813873291
1761914541531548400,9.17354833984375,-0.2897932827472687,-0.10781543701887131,0.10321973264217377
1761914541541603600,9.183603515625,-0.27752357721328735,-0.1161215677857399,0.10025110840797424
1761914541551659500,9.193659423828125,-0.2741171419620514,-0.13831888139247894,0.105422243475914
1761914541561715700,9.2037158203125,-0.2824890613555908,-0.17214636504650116,0.11134085059165955
1761914541571771400,9.213771484375,-0.30354130268096924,-0.20702825486660004,0.11050969362258911
1761914541581826600,9.22382666015625,-0.33768168091773987,-0.24768486618995667,0.10857756435871124
1761914541591882500,9.233882568359375,-0.38350871205329895,-0.27327239513397217,0.09779651463031769
1761914541601938400,9.2439384765625,-0.4140695333480835,-0.2839604616165161,0.0835547223687172
1761914541611993600,9.25399365234375,-0.4286956489086151,-0.3039805293083191,0.07255076617002487
1761914541622049500,9.264049560546875,-0.41257181763648987,-0.3129657506942749,0.07622779160737991
1761914541632105500,9.27410546875,-0.37589243054389954,-0.3157098591327667,0.10431139171123505
1761914541642160400,9.284160400390626,-0.3182711899280548,-0.2940056324005127,0.14495761692523956
1761914541652216300,9.29421630859375,-0.26273113489151,-0.2662695646286011,0.18197199702262878
1761914541662272500,9.3042724609375,-0.22128835320472717,-0.24031732976436615,0.19691872596740723
1761914541672327400,9.314327392578125,-0.19102764129638672,-0.22578270733356476,0.17997582256793976
1761914541682383600,9.324383544921876,-0.16679315268993378,-0.2498086839914322,0.12434718012809753
1761914541692439600,9.334439453125,-0.1449267715215683,-0.3144848346710205,0.04267382621765137
1761914541702495500,9.34449560546875,-0.1262364387512207,-0.394133061170578,-0.0325961597263813
1761914541712550400,9.35455029296875,-0.11557073146104813,-0.4367234706878662,-0.09853857755661011
1761914541722606300,9.3646064453125,-0.1092505156993866,-0.4662339687347412,-0.14669518172740936
1761914541732662500,9.37466259765625,-0.10270291566848755,-0.4532664120197296,-0.18245187401771545
1761914541742717400,9.384717529296875,-0.09068593382835388,-0.4173688590526581,-0.20681951940059662
1761914541752773600,9.394773681640626,-0.07611378282308578,-0.3928182125091553,-0.2350497543811798
1761914541762829600,9.40482958984375,-0.04637479409575462,-0.36981624364852905,-0.2527469992637634
1761914541772884500,9.414884521484375,-0.0003410200879443437,-0.32214146852493286,-0.24121522903442383
1761914541782940400,9.4249404296875,0.045243240892887115,-0.2603590786457062,-0.20468385517597198
1761914541792996400,9.434996337890626,0.08700324594974518,-0.19809836149215698,-0.1520831137895584
1761914541803051500,9.445051513671874,0.13032062351703644,-0.13986355066299438,-0.07788877934217453
1761914541813107500,9.455107421875,0.17456960678100586,-0.04682140797376633,0.02914632111787796
1761914541823163400,9.465163330078125,0.21778631210327148,0.09232582896947861,0.15265947580337524
1761914541833218600,9.475218505859376,0.2397080957889557,0.23958952724933624,0.2934888005256653
1761914541843274500,9.4852744140625,0.20942075550556183,0.3485165536403656,0.402818500995636
1761914541853330400,9.495330322265625,0.12310610711574554,0.410645991563797,0.46484997868537903
1761914541863386400,9.505386474609375,0.018469182774424553,0.4318993389606476,0.4820640981197357
1761914541873441500,9.515441650390626,-0.07311052829027176,0.414315789937973,0.4523623287677765
1761914541883497500,9.52549755859375,-0.13198557496070862,0.32580509781837463,0.39147236943244934
1761914541893553400,9.535553466796875,-0.16960301995277405,0.20561346411705017,0.30044060945510864
1761914541903608600,9.545608642578125,-0.17731553316116333,0.1064693033695221,0.20844624936580658
1761914541913664500,9.55566455078125,-0.17816269397735596,0.029074113816022873,0.11767639219760895
1761914541923720700,9.565720703125,-0.18046924471855164,-0.030913589522242546,0.03375619649887085
1761914541933775400,9.575775390625,-0.1786499172449112,-0.07247889786958694,-0.016323242336511612
1761914541943831800,9.585831787109376,-0.1462264508008957,-0.05535157024860382,-0.004239414818584919
1761914541953887700,9.5958876953125,-0.05892610549926758,0.0034739691764116287,0.07386157661676407
1761914541963942400,9.6059423828125,0.06502539664506912,0.08817527443170547,0.18879854679107666
1761914541973998600,9.61599853515625,0.20195409655570984,0.22155176103115082,0.3213851749897003
1761914541984054500,9.626054443359376,0.31472325325012207,0.3533342778682709,0.414020299911499
1761914541994109700,9.636109619140624,0.3586365580558777,0.43204501271247864,0.43506646156311035
1761914542004165600,9.64616552734375,0.35265377163887024,0.45124003291130066,0.39541172981262207
1761914542014221600,9.6562216796875,0.31976863741874695,0.3887731432914734,0.327120840549469
1761914542024276500,9.6662763671875,0.2818412184715271,0.2998020052909851,0.25753191113471985
1761914542034332400,9.67633251953125,0.23398102819919586,0.20204219222068787,0.20102685689926147
1761914542044388600,9.686388671875,0.1778746098279953,0.09076839685440063,0.1424306482076645
1761914542054444500,9.696444580078126,0.11048705130815506,-0.04042424261569977,0.07096392661333084
1761914542064499700,9.706499755859374,0.048071883618831635,-0.17465341091156006,-0.007277082186192274
1761914542074555600,9.7165556640625,-0.002365292049944401,-0.2615356147289276,-0.06749745458364487
1761914542084611600,9.726611572265625,-0.05215894803404808,-0.25118497014045715,-0.10937539488077164
1761914542094666800,9.736666748046876,-0.07775235176086426,-0.14540904760360718,-0.12615616619586945
1761914542104722400,9.746722412109374,-0.07958567142486572,0.028516147285699844,-0.13118182122707367
1761914542114778600,9.756778564453125,-0.061625733971595764,0.22653035819530487,-0.13742555677890778
1761914542124833500,9.76683349609375,-0.013543958775699139,0.41343632340431213,-0.1514175534248352
1761914542134889700,9.7768896484375,0.07567659020423889,0.5595877170562744,-0.15901020169258118
1761914542144945700,9.786945556640624,0.18743935227394104,0.6631892323493958,-0.1715899109840393
1761914542155000600,9.79700048828125,0.3244771957397461,0.7432457208633423,-0.16840703785419464
1761914542165056800,9.807056884765625,0.45035016536712646,0.8038893342018127,-0.1595352441072464
1761914542175112700,9.81711279296875,0.5615481734275818,0.8386762142181396,-0.14807039499282837
1761914542185167600,9.827167724609374,0.6621200442314148,0.8253912925720215,-0.14848610758781433
1761914542195223600,9.8372236328125,0.7387673854827881,0.763209879398346,-0.16159439086914062
1761914542205279500,9.847279541015626,0.783007025718689,0.6802558898925781,-0.18084345757961273
1761914542215335700,9.857335693359374,0.7783204317092896,0.5936093330383301,-0.21697652339935303
1761914542225390600,9.867390625,0.7386736869812012,0.5394704341888428,-0.2613474428653717
1761914542235446800,9.87744677734375,0.6679584980010986,0.5053205490112305,-0.306516170501709
1761914542245502700,9.887502685546876,0.5884905457496643,0.46235015988349915,-0.3394235372543335
1761914542255557600,9.8975576171875,0.5134047269821167,0.39263102412223816,-0.3490103483200073
1761914542265613600,9.907613525390625,0.45324602723121643,0.3189224600791931,-0.32847684621810913
1761914542275669500,9.91766943359375,0.41503721475601196,0.2713879346847534,-0.2728275954723358
1761914542285724700,9.927724609375,0.3962574005126953,0.27056822180747986,-0.20413456857204437
1761914542295780600,9.937780517578124,0.3842981457710266,0.30895525217056274,-0.12376293540000916
1761914542305836800,9.9478369140625,0.373291552066803,0.37474146485328674,-0.05817113816738129
1761914542315891500,9.957891357421875,0.35736653208732605,0.4264634847640991,-0.012348013930022717
1761914542325947600,9.96794775390625,0.3293175995349884,0.44292208552360535,0.012546416372060776
1761914542336003600,9.978003662109375,0.31011077761650085,0.4231926202774048,0.03247622027993202
1761914542346058500,9.98805859375,0.29090139269828796,0.4079391062259674,0.04972578212618828
1761914542356114700,9.99811474609375,0.2661152780056,0.38718006014823914,0.055772408843040466
1761914542366170600,10.008170654296874,0.242732971906662,0.3772840201854706,0.05423922836780548
1761914542376226600,10.0182265625,0.22417786717414856,0.360283762216568,0.05015077814459801
1761914542386281700,10.02828173828125,0.21380113065242767,0.3126600384712219,0.04442737624049187
1761914542396337400,10.03833740234375,0.20739535987377167,0.258114755153656,0.04514264315366745
1761914542406393600,10.0483935546875,0.19004620611667633,0.21154668927192688,0.05937563627958298
1761914542416448500,10.058448486328125,0.17049920558929443,0.17816312611103058,0.0658574253320694
1761914542426504700,10.068504638671875,0.14360153675079346,0.16444970667362213,0.06002882495522499
1761914542436560600,10.078560546875,0.11284574866294861,0.16458162665367126,0.03312012925744057
1761914542446615800,10.08861572265625,0.09180092066526413,0.15115369856357574,-0.016944102942943573
1761914542456671700,10.098671630859375,0.07468467205762863,0.12577417492866516,-0.07480043172836304
1761914542466727400,10.1087275390625,0.05444997549057007,0.08441049605607986,-0.12800319492816925
1761914542476782600,10.118782470703126,0.02359473519027233,0.013107672333717346,-0.15458253026008606
1761914542486838500,10.128838623046875,-0.002969230990856886,-0.07511033117771149,-0.13777825236320496
1761914542496894700,10.138894775390625,-0.008944765664637089,-0.13045640289783478,-0.06939519941806793
1761914542506949600,10.14894970703125,0.007105041295289993,-0.1489161103963852,0.04128337651491165
1761914542517005600,10.159005615234374,0.020347047597169876,-0.13873782753944397,0.16414090991020203
1761914542527061800,10.169061767578125,0.010703475214540958,-0.06522925198078156,0.26331275701522827
1761914542537116400,10.179116455078125,-0.013200088404119015,0.08143233507871628,0.32666096091270447
1761914542547172600,10.189172607421876,-0.017639311030507088,0.22431598603725433,0.32793286442756653
1761914542557228500,10.199228515625,-0.020321520045399666,0.29659396409988403,0.2541559338569641
1761914542567284500,10.209284423828125,-0.03726055845618248,0.2852928340435028,0.12307114154100418
1761914542577339600,10.219339599609375,-0.06435869634151459,0.2193957418203354,-0.04793180152773857
1761914542587395600,10.2293955078125,-0.08283517509698868,0.08763265609741211,-0.22544799745082855
1761914542597451800,10.23945166015625,-0.10056962072849274,-0.09863994270563126,-0.3792010545730591
1761914542607506400,10.24950634765625,-0.11681756377220154,-0.3166782557964325,-0.48337966203689575
1761914542617562600,10.259562744140625,-0.1450662463903427,-0.5079320669174194,-0.5081750154495239
1761914542627618600,10.26961865234375,-0.16122516989707947,-0.6378978490829468,-0.44096460938453674
1761914542637673700,10.279673828125,-0.15288151800632477,-0.6677715182304382,-0.2727780044078827
1761914542647729700,10.289729736328125,-0.12526188790798187,-0.5711525678634644,-0.0414036400616169
1761914542657785600,10.29978564453125,-0.08235783129930496,-0.42018675804138184,0.1996273547410965
1761914542667840800,10.3098408203125,-0.06696636229753494,-0.28851500153541565,0.3947209417819977
1761914542677896400,10.319896484375,-0.06456179171800613,-0.17757971584796906,0.5131487846374512
1761914542687952600,10.32995263671875,-0.05858033150434494,-0.06488592177629471,0.5694466829299927
1761914542698007600,10.340007568359376,-0.0611606240272522,0.022328007966279984,0.5622732639312744
1761914542708063500,10.3500634765625,-0.0827958807349205,0.06939538568258286,0.49633386731147766
1761914542718119700,10.36011962890625,-0.12493308633565903,0.07369080930948257,0.383886456489563
1761914542728174600,10.370174560546875,-0.18414446711540222,0.026890017092227936,0.24305716156959534
1761914542738230800,10.380230712890626,-0.2605532109737396,-0.08732657879590988,0.10300137102603912
1761914542748286700,10.39028662109375,-0.33924296498298645,-0.22248120605945587,0.022016771137714386
1761914542758342400,10.40034228515625,-0.41153472661972046,-0.29276150465011597,0.010305201634764671
1761914542768397600,10.4103974609375,-0.4693380892276764,-0.2926696240901947,0.04814685881137848
1761914542778453500,10.42045361328125,-0.5125492811203003,-0.24760010838508606,0.10130058974027634
1761914542788509700,10.430509765625,-0.5543603897094727,-0.20839518308639526,0.1569470763206482
1761914542798564600,10.440564697265625,-0.5858155488967896,-0.20324240624904633,0.2099342793226242
1761914542808620800,10.450620849609376,-0.6080836057662964,-0.1993485987186432,0.25699660181999207
1761914542818676700,10.4606767578125,-0.6092956066131592,-0.18095184862613678,0.291568785905838
1761914542828731600,10.470731689453125,-0.5862686038017273,-0.1630873680114746,0.3067868947982788
1761914542838787600,10.48078759765625,-0.5417508482933044,-0.15685904026031494,0.3061274588108063
1761914542848843500,10.490843505859376,-0.4714308977127075,-0.18023574352264404,0.3005446493625641
1761914542858898700,10.500898681640624,-0.38022729754447937,-0.23480892181396484,0.2993521988391876
1761914542868954600,10.51095458984375,-0.2959193289279938,-0.29459288716316223,0.3073302209377289
1761914542879010600,10.521010498046875,-0.24102632701396942,-0.3318737745285034,0.3175705075263977
1761914542889065500,10.5310654296875,-0.22911854088306427,-0.3334604799747467,0.3414750397205353
1761914542899121400,10.541121337890624,-0.25900861620903015,-0.3124321401119232,0.35979709029197693
1761914542909177600,10.551177490234375,-0.30940014123916626,-0.28720319271087646,0.3683149516582489
1761914542919232500,10.561232421875,-0.3729413151741028,-0.20390163362026215,0.3699082136154175
1761914542929288700,10.571288818359376,-0.44350364804267883,-0.08784987032413483,0.36418667435646057
1761914542939344600,10.5813447265625,-0.49497780203819275,-0.021619141101837158,0.36232876777648926
1761914542949400600,10.591400634765625,-0.5117613077163696,-0.022058561444282532,0.35821446776390076
1761914542959455700,10.601455810546875,-0.4868816137313843,-0.08582855761051178,0.3512946665287018
1761914542969511400,10.611511474609374,-0.42692455649375916,-0.17349448800086975,0.3566199243068695
1761914542979567600,10.621567626953125,-0.3620840907096863,-0.2403821498155594,0.36577579379081726
1761914542989622500,10.63162255859375,-0.2930341958999634,-0.2774946093559265,0.3837728798389435
1761914542999678700,10.6416787109375,-0.21436889469623566,-0.28812307119369507,0.407826691865921
1761914543009734700,10.651734619140624,-0.1351313292980194,-0.26817598938941956,0.42516466975212097
1761914543019789600,10.66178955078125,-0.0552370622754097,-0.20151114463806152,0.43459510803222656
1761914543029845800,10.671845703125,0.016491452232003212,-0.06451255083084106,0.4249541759490967
1761914543039901400,10.6819013671875,0.06968777626752853,0.13552114367485046,0.3631458282470703
1761914543049956600,10.69195654296875,0.09729783236980438,0.36184564232826233,0.2645830512046814
1761914543060012500,10.702012451171875,0.10141782462596893,0.5988888740539551,0.17190054059028625
1761914543070068500,10.712068359375,0.08279301226139069,0.814367413520813,0.10601446032524109
1761914543080123600,10.72212353515625,0.04475511610507965,0.9846538305282593,0.04467127472162247
1761914543090179600,10.7321796875,0.016452638432383537,1.0886691808700562,-0.019471490755677223
1761914543100235800,10.74223583984375,0.019015466794371605,1.120132327079773,-0.0580732487142086
1761914543110290400,10.75229052734375,0.038096215575933456,1.0321308374404907,-0.020532798022031784
1761914543120346600,10.7623466796875,-0.05460742115974426,0.6356353163719177,0.2064867615699768
1761914543130402600,10.772402587890625,-0.04689144343137741,0.050162848085165024,0.28324437141418457
1761914543140458500,10.78245849609375,0.05533575266599655,-0.3499413728713989,0.35755905508995056
1761914543150513700,10.792513671875,0.13082252442836761,-0.6018537282943726,0.4611509442329407
1761914543160569600,10.802569580078124,0.1821293979883194,-0.5870437026023865,0.5793910622596741
1761914543170625800,10.812625732421875,0.07028860598802567,-0.46052753925323486,0.6885713338851929
1761914543180680400,10.822680419921875,-0.11270531266927719,-0.3727896809577942,0.7501159310340881
